File: Spicy-Raman/model_train_and_validate/Raman_Data/polyethylene/20191004 Set3Sample3_6 5_.txt
3201.26	29.479
3199.48	33.6801
3197.7	46.2892
3195.92	37.8558
3194.13	25.2258
3192.35	37.8215
3190.56	33.6039
3188.78	41.9858
3186.99	46.1634
3185.2	29.3634
3183.42	33.5429
3181.63	33.5277
3179.84	54.4578
3178.05	58.6203
3176.25	25.1116
3174.46	29.2835
3172.67	33.4517
3170.87	58.5139
3169.08	50.132
3167.28	62.6365
3165.49	25.0432
3163.69	16.6879
3161.89	58.3811
3160.09	54.1864
3158.29	49.9955
3156.49	24.9864
3154.69	45.7875
3152.89	54.088
3151.08	29.111
3149.28	54.0388
3147.48	24.9296
3145.67	37.3774
3143.86	41.5116
3142.06	37.3434
3140.25	0
3138.44	62.1824
3136.63	37.2924
3134.82	82.8344
3133.01	33.1187
3131.19	53.7933
3129.38	53.7688
3127.57	53.7443
3125.75	45.4552
3123.94	24.7825
3122.12	37.1568
3120.3	37.1398
3118.49	49.4972
3116.67	41.2288
3114.85	49.452
3113.03	32.953
3111.21	32.938
3109.38	41.1537
3107.56	16.454
3105.74	57.5626
3103.91	36.9876
3102.09	24.6472
3100.26	57.4838
3098.43	28.7288
3096.61	41.0223
3094.78	28.7025
3092.95	20.4924
3091.12	45.0628
3089.28	32.7579
3087.45	12.2786
3085.62	40.91
3083.79	44.9804
3081.95	16.349
3080.12	49.0247
3078.28	57.1693
3076.44	20.4083
3074.6	20.3989
3072.77	44.8571
3070.93	32.6084
3069.08	44.8161
3067.24	44.7956
3065.4	61.0569
3063.56	69.1661
3061.71	36.6006
3059.87	44.7136
3058.02	12.189
3056.18	40.6115
3054.33	12.1779
3052.48	48.6891
3050.63	44.6112
3048.78	36.4834
3046.93	24.3111
3045.08	32.3999
3043.23	44.5295
3041.37	52.6016
3039.52	40.4442
3037.67	32.3405
3035.81	64.6514
3033.95	56.544
3032.1	44.407
3030.24	20.1757
3028.38	68.566
3026.52	20.1572
3024.66	52.3847
3022.8	52.3606
3020.93	72.466
3019.07	52.3125
3017.2	44.2441
3015.34	68.3458
3013.47	56.2589
3011.61	60.2497
3009.74	76.2812
3007.87	52.1684
3006	40.1111
3004.13	28.0648
3002.26	40.0742
3000.39	64.0892
2998.51	40.0373
2996.64	80.0377
2994.77	60.0007
2992.89	47.9784
2991.01	71.9345
2989.14	83.8849
2987.26	99.817
2985.38	47.8901
2983.5	99.7251
2981.62	51.8331
2979.74	71.7359
2977.85	95.6037
2975.97	67.6881
2974.09	115.415
2972.2	91.4936
2970.32	83.4991
2968.43	119.229
2966.54	131.092
2964.65	103.237
2962.76	111.127
2960.87	99.1745
2958.98	118.954
2957.09	130.789
2955.2	134.691
2953.3	154.427
2951.41	154.355
2949.51	130.548
2947.62	193.754
2945.72	217.379
2943.82	193.575
2941.92	205.332
2940.02	248.653
2938.12	287.988
2936.22	240.536
2934.32	208.894
2932.41	315.165
2930.51	259.891
2928.6	259.771
2926.7	295.058
2924.79	326.379
2922.88	310.506
2920.97	318.22
2919.06	318.072
2917.15	259.05
2915.24	341.317
2913.33	286.26
2911.42	309.644
2909.5	329.089
2907.59	352.432
2905.67	328.784
2903.75	367.755
2901.84	344.121
2899.92	332.236
2898	347.709
2896.08	351.453
2894.16	413.741
2892.24	460.366
2890.31	491.349
2888.39	456.041
2886.46	561.021
2884.54	607.49
2882.61	614.993
2880.68	587.473
2878.76	521.091
2876.83	466.432
2874.9	446.79
2872.97	431.049
2871.03	419.204
2869.1	419.009
2867.17	411.058
2865.23	422.495
2863.3	542.402
2861.36	480.19
2859.42	390.94
2857.48	417.841
2855.55	475.653
2853.61	545.007
2851.66	517.708
2849.72	536.776
2847.78	551.965
2845.84	486.121
2843.89	428.05
2841.95	319.924
2840	269.69
2838.05	204.098
2836.1	169.361
2834.16	157.74
2832.21	146.13
2830.25	88.4059
2828.3	92.2066
2826.35	119.045
2824.4	111.312
2822.44	95.9142
2820.49	69.026
2818.53	61.3278
2816.57	80.4551
2814.61	84.247
2812.66	91.8629
2810.7	107.123
2808.73	76.4809
2806.77	49.6893
2804.81	72.5889
2802.85	76.3737
2800.88	68.7042
2798.92	64.857
2796.95	57.2
2794.98	45.7386
2793.01	80.0051
2791.04	83.7756
2789.07	49.4806
2787.1	72.284
2785.13	34.2238
2783.16	72.2163
2781.18	68.3834
2779.21	60.7568
2777.23	45.5463
2775.26	68.2874
2773.28	60.6715
2771.3	75.8038
2769.32	75.7683
2767.34	64.3728
2765.36	75.6972
2763.38	79.4448
2761.39	98.3142
2759.41	79.3703
2757.43	52.8887
2755.44	75.5199
2753.45	79.2587
2751.46	75.449
2749.48	67.8723
2747.49	97.9917
2745.5	105.48
2743.5	79.0728
2741.51	79.0357
2739.52	75.2367
2737.52	90.2416
2735.53	93.9575
2733.53	105.183
2731.54	138.926
2729.54	120.096
2727.54	108.786
2725.54	123.733
2723.54	101.188
2721.54	127.362
2719.53	116.07
2717.53	89.8182
2715.52	108.479
2713.52	134.6
2711.51	67.2686
2709.5	74.7076
2707.5	78.4061
2705.49	93.2966
2703.48	115.633
2701.47	63.3819
2699.45	44.7191
2697.44	104.295
2695.43	52.1231
2693.41	111.64
2691.39	81.8305
2689.38	107.817
2687.36	85.4694
2685.34	29.7145
2683.32	63.1134
2681.3	89.0593
2679.28	55.6358
2677.26	77.8533
2675.23	62.9944
2673.21	85.1874
2671.18	74.041
2669.16	70.3058
2667.13	62.8754
2665.1	85.0266
2663.07	48.0358
2661.04	51.7064
2659.01	81.2145
2656.98	51.6575
2654.94	84.8258
2652.91	88.472
2650.87	73.6918
2648.84	77.3397
2646.8	84.6654
2644.76	58.8698
2642.72	84.5852
2640.68	51.4623
2638.64	51.4379
2636.6	77.1203
2634.56	47.7185
2632.51	66.0405
2630.47	73.3436
2628.42	95.3015
2626.38	87.9289
2624.33	73.2393
2622.28	58.5637
2620.23	65.8529
2618.18	62.1649
2616.13	91.3756
2614.07	65.7592
2612.02	76.6827
2609.97	83.946
2607.91	43.7771
2605.85	54.6954
2603.8	76.5372
2601.74	69.2151
2599.68	40.0528
2597.62	72.7888
2595.56	101.856
2593.49	61.8117
2591.43	83.5878
2589.37	65.3854
2587.3	79.8775
2585.24	87.0977
2583.17	65.2922
2581.1	68.8868
2579.03	61.6062
2576.96	90.5542
2574.89	54.3067
2572.82	72.3744
2570.74	61.489
2568.67	54.2292
2566.59	50.5898
2564.52	86.684
2562.44	72.2023
2560.36	75.7763
2558.28	86.5602
2556.2	82.914
2554.12	64.8583
2552.04	50.4213
2549.96	35.998
2547.87	43.177
2545.79	32.3673
2543.7	35.9465
2541.61	53.8941
2539.53	82.5981
2537.44	71.7902
2535.35	57.4047
2533.26	60.9634
2531.16	53.7655
2529.07	68.0705
2526.98	60.8761
2524.88	57.2677
2522.79	75.128
2520.69	67.9405
2518.59	64.3339
2516.49	82.1651
2514.39	49.9896
2512.29	67.8106
2510.19	46.3745
2508.09	67.7457
2505.98	53.4579
2503.88	92.616
2501.77	71.209
2499.66	53.3812
2497.55	64.0267
2495.45	95.9941
2493.33	49.7509
2491.22	42.6232
2489.11	67.4543
2487	67.422
2484.88	56.7492
2482.77	77.9928
2480.65	74.4119
2478.54	63.7511
2476.42	56.6404
2474.3	74.3049
2472.18	31.8297
2470.06	67.1638
2467.93	74.198
2465.81	81.2255
2463.69	98.8357
2461.56	28.2252
2459.43	91.6879
2457.31	84.5943
2455.18	84.5537
2453.05	70.4275
2450.92	66.874
2448.79	49.2519
2446.65	56.2608
2444.52	66.7776
2442.39	56.2067
2440.25	91.292
2438.11	94.7576
2435.98	87.6963
2433.84	84.1479
2431.7	63.0806
2429.56	70.0558
2427.41	87.5275
2425.27	101.483
2423.13	90.941
2420.98	104.881
2418.84	59.4041
2416.69	52.3902
2414.54	66.3289
2412.39	90.7221
2410.24	80.2154
2408.09	101.092
2405.94	52.264
2403.79	100.995
2401.63	73.099
2399.48	52.1884
2397.32	59.1183
2395.16	76.469
2393	76.4321
2390.84	97.2303
2388.68	104.125
2386.52	97.1364
2384.36	79.752
2382.2	62.3845
2380.03	62.3543
2377.87	72.7115
2375.7	100.363
2373.53	41.5093
2371.36	93.3507
2369.19	93.3056
2367.02	93.2604
2364.85	96.6677
2362.68	89.7194
2360.5	55.1852
2358.33	62.0533
2356.15	99.9264
2353.97	61.9932
2351.8	68.848
2349.62	65.3739
2347.44	96.2938
2345.25	92.8098
2343.07	65.2789
2340.89	72.1154
2338.7	78.9452
2336.52	48.0303
2334.33	75.4396
2332.14	99.3949
2329.95	95.9209
2327.76	78.7539
2325.57	99.2502
2323.38	82.0982
2321.19	92.3157
2318.99	64.9313
2316.8	71.7314
2314.6	71.6965
2312.4	95.5489
2310.2	102.324
2308.01	88.6378
2305.8	74.9647
2303.6	105.581
2301.4	85.1043
2299.2	74.8554
2296.99	78.2198
2294.79	57.7865
2292.58	74.7462
2290.37	71.3139
2288.16	84.8562
2285.95	88.2074
2283.74	105.119
2281.53	71.1751
2279.31	111.792
2277.1	84.6497
2274.88	87.9928
2272.67	111.629
2270.45	71.0018
2268.23	64.2084
2266.01	104.71
2263.79	97.9068
2261.57	118.106
2259.34	101.184
2257.12	60.6808
2254.89	84.2377
2252.67	94.3002
2250.44	111.085
2248.21	121.125
2245.98	73.9845
2243.75	110.923
2241.52	104.149
2239.28	114.172
2237.05	100.691
2234.81	77.1586
2232.58	100.592
2230.34	77.0832
2228.1	80.3953
2225.86	107.141
2223.62	150.594
2221.38	97.0018
2219.14	106.984
2216.89	133.665
2214.65	100.199
2212.4	123.519
2210.15	66.7342
2207.9	90.047
2205.66	100.003
2203.4	106.618
2201.15	106.565
2198.9	103.185
2196.65	66.5381
2194.39	113.059
2192.13	152.888
2189.88	132.881
2187.62	119.534
2185.36	116.156
2183.1	109.465
2180.84	109.411
2178.57	102.73
2176.31	119.241
2174.05	132.425
2171.78	95.9606
2169.51	122.372
2167.24	112.395
2164.97	118.948
2162.7	135.402
2160.43	132.034
2158.16	122.072
2155.88	108.821
2153.61	98.8798
2151.33	88.948
2149.06	95.4897
2146.78	108.607
2144.5	108.554
2142.22	118.364
2139.94	151.168
2137.65	108.393
2135.37	98.4909
2133.08	124.694
2130.8	98.3939
2128.51	108.18
2126.22	131.062
2123.93	127.723
2121.64	127.66
2119.35	98.1515
2117.05	130.804
2114.76	124.203
2112.47	124.141
2110.17	120.815
2107.87	120.755
2105.57	55.4546
2103.27	107.594
2100.97	114.059
2098.67	107.488
2096.37	126.968
2094.06	113.889
2091.76	130.095
2089.45	120.278
2087.14	126.717
2084.83	142.892
2082.52	126.592
2080.21	110.308
2077.9	119.981
2075.58	103.716
2073.27	119.862
2070.95	90.6618
2068.64	132.689
2066.32	152.032
2064	119.625
2061.68	135.723
2059.36	142.116
2057.03	125.904
2054.71	154.882
2052.38	180.606
2050.06	141.834
2047.73	183.649
2045.4	119.151
2043.07	135.186
2040.74	164.073
2038.41	138.267
2036.08	163.91
2033.74	144.554
2031.41	122.008
2029.07	141.202
2026.73	121.886
2024.39	147.473
2022.05	157.013
2019.71	137.718
2017.37	160.058
2015.03	124.783
2012.68	153.503
2010.33	147.034
2007.99	159.74
2005.64	102.183
2003.29	162.772
2000.94	140.361
1998.59	146.668
1996.23	137.034
1993.88	168.819
1991.52	152.816
1989.17	143.194
1986.81	203.552
1984.45	197.093
1982.09	142.98
1979.73	181.017
1977.37	174.579
1975	142.766
1972.64	149.037
1970.27	183.826
1967.91	186.902
1965.54	193.141
1963.17	170.892
1960.8	189.785
1958.43	183.367
1956.05	211.715
1953.68	208.451
1951.3	205.19
1948.93	208.242
1946.55	189.217
1944.17	170.21
1941.79	207.93
1939.41	207.826
1937.02	173.102
1934.64	217.055
1932.26	210.658
1929.87	223.123
1927.48	201.024
1925.09	210.342
1922.7	200.823
1920.31	200.722
1917.92	235.104
1915.53	216.187
1913.13	191.026
1910.74	256.66
1908.34	215.862
1905.94	259.53
1903.54	200.019
1901.14	240.527
1898.74	259.139
1896.34	246.527
1893.93	240.165
1891.53	221.339
1889.12	296.01
1886.71	277.175
1884.3	292.599
1881.89	301.786
1879.48	227.003
1877.07	208.241
1874.66	245.414
1872.24	251.5
1869.82	269.994
1867.41	245.044
1864.99	238.72
1862.57	244.797
1860.15	250.868
1857.72	235.264
1855.3	293.932
1852.88	275.229
1850.45	284.363
1848.02	262.594
1845.59	231.584
1843.16	277.761
1840.73	311.552
1838.3	299.062
1835.87	295.83
1833.43	283.361
1831	243.198
1828.56	316.921
1826.12	322.911
1823.68	304.306
1821.24	313.369
1818.8	245.655
1816.36	279.292
1813.91	285.286
1811.47	312.736
1809.02	358.545
1806.57	278.728
1804.12	318.385
1801.67	287.625
1799.22	351.704
1796.77	299.561
1794.31	333.017
1791.86	302.312
1789.4	332.68
1786.94	332.511
1784.48	298.804
1782.02	353.507
1779.56	310.685
1777.1	322.705
1774.63	331.67
1772.17	352.791
1769.7	331.334
1767.23	312.936
1764.76	367.438
1762.29	382.427
1759.82	351.897
1757.35	357.783
1754.87	363.662
1752.4	402.854
1749.92	372.375
1747.44	405.471
1744.96	362.924
1742.48	402.036
1740	344.427
1737.51	386.529
1735.03	380.296
1732.54	398.203
1730.06	364.834
1727.57	415.88
1725.08	403.62
1722.59	346.214
1720.1	382.146
1717.6	472.176
1715.11	372.739
1712.61	399.589
1710.12	405.391
1707.62	411.187
1705.12	419.977
1702.62	452.745
1700.11	422.546
1697.61	434.312
1695.11	467.021
1692.6	454.814
1690.09	454.582
1687.58	427.448
1685.07	418.267
1682.56	435.97
1680.05	492.454
1677.54	480.271
1675.02	465.118
1672.51	575.14
1669.99	500.384
1667.47	538.829
1664.95	520.701
1662.43	499.617
1659.9	585.561
1657.38	585.262
1654.85	513.698
1652.33	560.92
1649.8	513.172
1647.27	435.825
1644.74	524.5
1642.21	515.346
1639.68	565.407
1637.14	520.736
1634.61	517.512
1632.07	529.07
1629.53	475.623
1626.99	525.575
1624.45	475.136
1621.91	460.144
1619.36	483.493
1616.82	521.551
1614.27	491.832
1611.72	494.523
1609.18	497.211
1606.63	488.134
1604.07	473.188
1601.52	519.946
1598.97	478.575
1596.41	434.311
1593.86	475.15
1591.3	469.042
1588.74	421.921
1586.18	509.559
1583.62	444.903
1581.05	453.451
1578.49	479.533
1575.92	485.132
1573.36	543.301
1570.79	516.746
1568.22	484.383
1565.65	565.794
1563.07	480.969
1560.5	512.769
1557.92	506.681
1555.35	480.225
1552.77	514.885
1550.19	540.787
1547.61	523.072
1545.03	543.134
1542.45	531.242
1539.86	542.573
1537.28	524.893
1534.69	579.693
1532.1	579.394
1529.51	564.617
1526.92	573.007
1524.33	540.894
1521.73	555.069
1519.14	572.119
1516.54	568.936
1513.94	574.414
1511.34	553.922
1508.74	608.423
1506.14	596.58
1503.54	570.346
1500.93	584.446
1498.33	595.654
1495.72	534.948
1493.11	609.41
1490.5	609.094
1487.89	623.136
1485.28	637.164
1482.66	639.702
1480.05	656.573
1477.43	719.277
1474.81	779.052
1472.19	853.077
1469.57	901.274
1466.95	1020.91
1464.33	1060.4
1461.7	1068.42
1459.08	1130.68
1456.45	1067.31
1453.82	1078.16
1451.19	1023.44
1448.56	1079.89
1445.92	1179.01
1443.29	1229.63
1440.65	1536.24
1438.02	1552.5
1435.38	1287.39
1432.74	1062.33
1430.1	914.146
1427.45	936.37
1424.81	870.655
1422.16	977.914
1419.52	915.077
1416.87	807
1414.22	778.279
1411.57	789.187
1408.92	718.097
1406.26	720.548
1403.61	663.689
1400.95	663.342
1398.29	654.532
1395.63	769.802
1392.97	682.033
1390.31	661.959
1387.65	715.105
1384.98	706.29
1382.32	753.732
1379.65	756.15
1376.98	800.706
1374.31	710.431
1371.64	768.997
1368.96	793.841
1366.29	785.015
1363.61	798.615
1360.94	812.201
1358.26	772.587
1355.58	772.182
1352.9	794.148
1350.21	793.732
1347.53	737.449
1344.84	714.728
1342.15	772.953
1339.47	811.593
1336.78	852.98
1334.08	819.101
1331.39	762.979
1328.7	873.904
1326	781.651
1323.3	856.306
1320.61	750.264
1317.91	822.08
1315.2	849.407
1312.5	848.961
1309.8	898.427
1307.09	917.356
1304.38	1019.36
1301.68	1027.13
1298.97	1397.39
1296.25	1595.78
1293.54	1152.67
1290.83	1019.45
1288.11	869.804
1285.39	797.591
1282.68	747.52
1279.96	771.939
1277.23	710.912
1274.51	699.522
1271.79	682.638
1269.06	635.509
1266.33	698.416
1263.61	632.091
1260.88	648.238
1258.14	612.207
1255.41	557.007
1252.68	608.819
1249.94	581.088
1247.2	569.823
1244.47	585.951
1241.73	541.855
1238.98	571.656
1236.24	489.342
1233.5	491.816
1230.75	535.25
1228	507.672
1225.25	515.588
1222.5	509.862
1219.75	493.242
1217	547.454
1214.25	547.165
1211.49	476.135
1208.73	484.041
1205.97	527.271
1203.21	486.245
1200.45	548.433
1197.69	474.876
1194.92	480.048
1192.16	490.637
1189.39	498.504
1186.62	490.117
1183.85	479.031
1181.08	503.122
1178.3	548.815
1175.53	475.567
1172.75	523.926
1169.97	507.453
1167.19	493.695
1164.41	493.432
1161.63	528.204
1158.84	487.521
1156.06	498.03
1153.27	500.456
1150.48	545.907
1147.69	473.047
1144.9	475.481
1142.11	531.612
1139.32	539.379
1136.52	598.097
1133.72	758.616
1130.92	1018.09
1128.12	1068.43
1125.32	776.139
1122.52	633.955
1119.71	596.188
1116.91	577.166
1114.1	566.176
1111.29	544.52
1108.48	549.565
1105.67	594.601
1102.85	639.587
1100.04	716.488
1097.22	590.987
1094.4	572.047
1091.58	545.149
1088.76	539.542
1085.94	541.91
1083.11	533.655
1080.29	549.292
1077.46	564.911
1074.63	596.418
1071.8	601.398
1068.97	701.697
1066.14	939.506
1063.3	1116.22
1060.46	867.121
1057.63	615.644
1054.79	483.272
1051.95	551.638
1049.1	493.307
1046.26	516.772
1043.41	482.237
1040.57	466.176
1037.72	473.823
1034.87	470.938
1032.02	491.722
1029.16	459.921
1026.31	449.167
1023.45	451.551
1020.59	380.464
1017.73	430.087
1014.87	463.93
1012.01	437.484
1009.15	418.921
1006.28	437.014
1003.41	431.548
1000.55	407.79
997.676	410.183
994.804	378.628
991.931	370.594
989.056	383.437
986.18	372.803
983.302	398.658
980.422	401.047
977.541	421.654
974.659	403.217
971.775	418.6
968.889	402.782
966.002	371.399
963.113	384.178
960.223	430.67
957.331	453.774
954.437	432.797
951.542	437.744
948.646	385.731
945.748	419.159
942.848	362.041
939.947	377.353
937.044	413.314
934.139	392.436
931.233	389.644
928.326	340.431
925.417	396.955
922.506	430.232
919.594	445.448
916.68	488.956
913.765	486.119
910.848	555.264
907.929	567.81
905.009	516.144
902.087	508.165
899.164	536.106
896.239	553.762
893.312	648.268
890.384	606.941
887.454	478.635
884.523	486.05
881.59	462.775
878.656	485.522
875.72	469.935
872.782	500.311
869.843	482.181
866.902	484.469
863.96	509.69
861.016	524.696
858.07	470.951
855.123	519.037
852.174	465.354
849.224	470.184
846.272	472.468
843.318	487.444
840.363	456.73
837.406	436.193
834.447	476.51
831.487	468.65
828.525	430.417
825.562	483.323
822.597	432.477
819.631	412.02
816.662	411.795
813.693	406.521
810.721	421.441
807.748	373.289
804.774	390.731
801.797	408.154
798.819	418.004
795.84	392.608
792.859	387.363
789.876	367.04
786.892	384.427
783.906	374.172
780.918	394.047
777.929	403.865
774.938	381.08
771.945	418.458
768.951	380.664
765.955	428.012
762.957	397.759
759.958	435.045
756.957	407.319
753.955	379.623
750.951	434.33
747.945	411.639
744.938	443.828
741.929	413.68
738.918	410.963
735.906	398.291
732.892	417.976
729.876	420.233
726.859	407.577
723.84	424.74
720.819	454.297
717.797	377.132
714.773	426.52
711.748	396.545
708.72	440.914
705.691	430.769
702.661	400.84
699.629	432.768
696.595	422.644
693.559	390.298
690.522	434.524
687.483	407.142
684.442	473.504
681.4	421.482
678.356	421.25
675.311	418.556
672.263	442.933
669.214	442.689
666.164	427.697
663.111	417.634
660.057	454.234
657.001	414.72
653.944	412.038
650.885	451.031
647.824	460.582
644.762	445.636
641.698	408.682
638.632	454.927
635.564	498.677
632.495	461.754
629.424	407.78
626.351	427.078
623.277	485.38
620.201	463.172
617.123	465.352
614.044	465.094
610.963	440.5
607.88	411.068
604.795	478.908
601.709	488.362
598.621	441.953
595.531	463.551
592.44	460.869
589.347	443.643
586.252	487.01
583.155	445.573
580.057	479.209
576.957	512.808
573.855	502.853
570.752	471.163
567.647	485.391
564.54	502.016
561.431	458.318
558.321	467.707
555.209	472.266
552.095	440.697
548.979	471.741
545.862	449.829
542.743	545.745
539.622	485.371
536.5	441.874
533.376	501.632
530.25	513.347
527.122	477.099
523.992	491.21
520.861	490.936
517.728	490.663
514.594	528.663
511.457	537.932
508.319	571.085
505.179	537.332
502.037	491.683
498.894	481.867
495.749	545.97
492.602	498.009
489.453	533.453
486.303	490.312
483.15	501.932
479.996	496.897
476.841	558.399
473.683	522.465
470.524	553.028
467.363	569.324
464.2	528.701
461.035	526.036
457.869	554.16
454.701	565.684
451.531	560.636
448.359	572.143
445.186	593.089
442.011	550.248
438.834	604.226
435.655	618.04
432.474	582.33
429.292	553.728
426.108	598.161
422.922	611.948
419.734	569.262
416.544	632.42
413.353	589.771
410.16	608.226
406.965	593.802
403.768	631
400.57	757.244
397.37	632.634
394.167	639.304
390.964	629.583
387.758	624.55
384.55	633.55
381.341	665.904
378.13	698.222
374.917	683.826
371.702	716.097
368.486	678.393
365.267	715.29
362.047	691.601
358.825	707.502
355.601	674.539
352.376	690.431
349.148	662.162
345.919	715.195
342.688	733.358
339.455	756.138
336.22	695.44
332.984	736.75
329.745	685.392
326.505	726.661
323.263	737.815
320.019	698.1
316.773	750.842
313.526	761.962
310.276	685.378
307.025	751.875
303.772	721.484
300.517	739.505
297.26	755.204
294.001	775.486
290.741	726.75
287.479	774.608
284.214	771.872
280.948	753.067
277.681	805.416
274.411	839.359
271.139	889.308
267.866	804.046
264.59	840.221
261.313	796.269
258.034	852.988
254.753	847.932
251.471	922.83
248.186	901.76
244.9	880.712
241.611	887.053
238.321	859.2
235.029	899.711
231.735	960.663
228.439	905.512
225.141	934.557
221.842	972.659
218.54	965.291
215.237	973.821
211.932	1009.57
208.624	1008.99
205.315	992.552
202.005	996.516
198.692	1106.86
195.377	995.38
192.06	1024.2
188.742	1068.81
185.422	1086.27
182.099	1047.28
178.775	1179.77
175.449	1228.7
172.121	1250.53
168.791	1292.6
165.46	1345.87
162.126	1437.33
158.79	1292.63
155.453	1336.83
152.113	1439.35
148.772	1398.13
145.429	1361.45
142.084	1336.01
138.737	1447.26
135.388	1370.31
132.037	1432.18
128.684	1471.61
125.329	1526.65
121.973	1561.52
118.614	1589.65
115.253	1666.83
111.891	1670.34
108.527	1660.46
105.16	1568.18
101.792	1511.62
100.669	1457.91