File: Spicy-Raman/model_train_and_validate/Raman_Data/polyethylene/20191004 Set3Sample3_5 5_.txt
3201.26	46.3241
3199.48	67.3602
3197.7	42.0811
3195.92	46.2682
3194.13	50.4515
3192.35	67.2382
3190.56	50.4058
3188.78	29.39
3186.99	50.3601
3185.2	33.5582
3183.42	20.9643
3181.63	12.5729
3179.84	41.8906
3178.05	50.246
3176.25	75.3347
3174.46	33.4669
3172.67	54.359
3170.87	41.7956
3169.08	8.35533
3167.28	41.7577
3165.49	54.2603
3163.69	58.4077
3161.89	41.7008
3160.09	41.6819
3158.29	24.9977
3156.49	37.4796
3154.69	8.32501
3152.89	41.6061
3151.08	4.15872
3149.28	49.8819
3147.48	12.4648
3145.67	66.4488
3143.86	29.0581
3142.06	41.4927
3140.25	0
3138.44	45.6004
3136.63	29.0052
3134.82	45.5589
3133.01	45.5382
3131.19	4.13795
3129.38	66.177
3127.57	16.5367
3125.75	33.0584
3123.94	16.5216
3122.12	53.6709
3120.3	41.2665
3118.49	32.9981
3116.67	74.2119
3114.85	32.968
3113.03	28.8339
3111.21	32.938
3109.38	45.269
3107.56	41.1349
3105.74	12.3348
3103.91	45.2071
3102.09	45.1864
3100.26	53.3778
3098.43	12.3123
3096.61	45.1246
3094.78	28.7025
3092.95	36.8864
3091.12	57.3526
3089.28	49.1369
3087.45	32.743
3085.62	36.819
3083.79	36.8022
3081.95	32.6981
3080.12	73.537
3078.28	61.2528
3076.44	32.6532
3074.6	69.3564
3072.77	65.2467
3070.93	0
3069.08	20.3709
3067.24	36.6509
3065.4	44.7751
3063.56	36.6174
3061.71	36.6006
3059.87	32.519
3058.02	20.315
3056.18	48.7338
3054.33	44.6521
3052.48	40.5743
3050.63	20.2778
3048.78	16.2148
3046.93	4.05185
3045.08	48.5999
3043.23	44.5295
3041.37	24.2777
3039.52	76.844
3037.67	32.3405
3035.81	36.3664
3033.95	36.3497
3032.1	24.222
3030.24	16.1406
3028.38	20.1665
3026.52	44.3459
3024.66	60.4439
3022.8	28.1942
3020.93	64.4142
3019.07	60.3606
3017.2	32.1775
3015.34	80.4068
3013.47	44.2034
3011.61	44.1831
3009.74	36.1332
3007.87	12.0389
3006	8.02221
3004.13	36.0834
3002.26	76.1409
3000.39	40.0557
2998.51	40.0373
2996.64	40.0189
2994.77	48.0005
2992.89	27.9874
2991.01	31.9709
2989.14	35.9507
2987.26	43.9195
2985.38	39.9084
2983.5	51.857
2981.62	43.8588
2979.74	51.8092
2977.85	55.7688
2975.97	67.6881
2974.09	71.6367
2972.2	75.5816
2970.32	63.6183
2968.43	63.589
2966.54	55.6147
2964.65	71.4716
2962.76	43.6569
2960.87	31.7358
2958.98	71.3727
2957.09	67.3764
2955.2	59.4223
2953.3	87.1125
2951.41	63.3253
2949.51	59.34
2947.62	102.808
2945.72	98.8086
2943.82	146.169
2941.92	110.563
2940.02	78.9373
2938.12	98.626
2936.22	118.296
2934.32	141.89
2932.41	118.187
2930.51	122.07
2928.6	137.757
2926.7	110.155
2924.79	98.307
2922.88	98.2615
2920.97	125.716
2919.06	137.439
2917.15	133.45
2915.24	117.695
2913.33	133.326
2911.42	148.943
2909.5	144.956
2907.59	105.73
2905.67	136.994
2903.75	140.842
2901.84	86.0304
2899.92	175.89
2898	128.926
2896.08	140.581
2894.16	167.838
2892.24	140.451
2890.31	155.984
2888.39	202.685
2886.46	183.111
2884.54	163.555
2882.61	194.618
2880.68	167.294
2878.76	155.55
2876.83	206.008
2874.9	151.52
2872.97	155.333
2871.03	143.616
2869.1	116.391
2867.17	100.826
2865.23	147.292
2863.3	139.475
2861.36	174.262
2859.42	139.345
2857.48	181.838
2855.55	166.285
2853.61	181.669
2851.66	177.721
2849.72	181.5
2847.78	181.415
2845.84	165.898
2843.89	138.827
2841.95	119.49
2840	123.287
2838.05	69.3164
2836.1	57.7368
2834.16	57.7099
2832.21	69.2195
2830.25	61.4998
2828.3	65.313
2826.35	34.5614
2824.4	42.2219
2822.44	42.2022
2820.49	30.6782
2818.53	53.6618
2816.57	26.8184
2814.61	57.4411
2812.66	49.7591
2810.7	61.2133
2808.73	49.7126
2806.77	11.4668
2804.81	49.6661
2802.85	42.0055
2800.88	53.4366
2798.92	22.8907
2796.95	76.2666
2794.98	34.3039
2793.01	34.2879
2791.04	41.8878
2789.07	26.6434
2787.1	15.2177
2785.13	45.6317
2783.16	49.4112
2781.18	41.7899
2779.21	56.9595
2777.23	60.7283
2775.26	45.5249
2773.28	15.1679
2771.3	18.9509
2769.32	37.8841
2767.34	34.0797
2765.36	64.3427
2763.38	60.5294
2761.39	49.1571
2759.41	34.0159
2757.43	49.111
2755.44	67.9679
2753.45	52.8391
2751.46	41.497
2749.48	75.4136
2747.49	26.3824
2745.5	64.0414
2743.5	60.246
2741.51	15.0544
2739.52	67.713
2737.52	56.401
2735.53	48.8579
2733.53	75.1307
2731.54	60.0763
2729.54	78.8131
2727.54	78.776
2725.54	71.24
2723.54	101.188
2721.54	108.633
2719.53	59.907
2717.53	44.9091
2715.52	89.7759
2713.52	59.8224
2711.51	41.1086
2709.5	44.8246
2707.5	52.2707
2705.49	59.7098
2703.48	70.872
2701.47	67.1103
2699.45	40.9925
2697.44	52.1477
2695.43	70.7385
2693.41	48.3772
2691.39	63.2327
2689.38	44.6138
2687.36	37.1606
2685.34	52.0003
2683.32	51.9758
2681.3	66.7945
2679.28	51.9267
2677.26	40.7803
2675.23	48.1722
2673.21	77.7798
2671.18	40.7226
2669.16	29.6024
2667.13	33.287
2665.1	29.5745
2663.07	55.4259
2661.04	51.7064
2659.01	36.9157
2656.98	36.8982
2654.94	36.8808
2652.91	58.9813
2650.87	77.3764
2648.84	47.877
2646.8	44.1732
2644.76	62.5491
2642.72	44.1314
2640.68	69.8417
2638.64	58.7862
2636.6	44.0688
2634.56	44.0479
2632.51	58.7027
2630.47	58.6749
2628.42	40.3199
2626.38	36.637
2624.33	36.6197
2622.28	69.5444
2620.23	69.5114
2618.18	36.5676
2616.13	80.4106
2614.07	40.1862
2612.02	29.2125
2609.97	54.7474
2607.91	72.9618
2605.85	83.8663
2603.8	54.6694
2601.74	36.429
2599.68	61.8999
2597.62	43.6733
2595.56	69.1165
2593.49	14.5439
2591.43	25.4398
2589.37	21.7951
2587.3	29.0464
2585.24	47.1779
2583.17	61.6649
2581.1	32.6306
2579.03	61.6062
2576.96	32.5995
2574.89	43.4453
2572.82	61.5183
2570.74	65.106
2568.67	14.4611
2566.59	43.3627
2564.52	39.7302
2562.44	75.8124
2560.36	25.2588
2558.28	50.4934
2556.2	18.0248
2554.12	72.0647
2552.04	36.0152
2549.96	32.3982
2547.87	57.5694
2545.79	46.7528
2543.7	28.7572
2541.61	43.1152
2539.53	68.2332
2537.44	61.0216
2535.35	46.6413
2533.26	50.2051
2531.16	50.1812
2529.07	32.2439
2526.98	35.8094
2524.88	39.3716
2522.79	53.6629
2520.69	71.5163
2518.59	39.3151
2516.49	64.3031
2514.39	64.2724
2512.29	39.2588
2510.19	57.0763
2508.09	39.2212
2505.98	67.7133
2503.88	53.4323
2501.77	49.8463
2499.66	53.3812
2497.55	42.6845
2495.45	67.5514
2493.33	78.1799
2491.22	46.1751
2489.11	46.153
2487	56.7764
2484.88	81.577
2482.77	49.6318
2480.65	46.0645
2478.54	53.1259
2476.42	53.1004
2474.3	56.6133
2472.18	56.5861
2470.06	17.6747
2467.93	70.6648
2465.81	49.4416
2463.69	67.0671
2461.56	81.1475
2459.43	67.0027
2457.31	56.3962
2455.18	66.9383
2453.05	73.9489
2450.92	45.7559
2448.79	52.7699
2446.65	45.7119
2444.52	101.924
2442.39	59.7196
2440.25	66.7134
2438.11	31.5859
2435.98	63.1413
2433.84	28.0493
2431.7	52.5671
2429.56	66.553
2427.41	73.5231
2425.27	59.4901
2423.13	52.466
2420.98	69.9209
2418.84	48.9211
2416.69	48.8975
2414.54	66.3289
2412.39	69.7862
2410.24	55.802
2408.09	73.2049
2405.94	24.3899
2403.79	55.7213
2401.63	48.7326
2399.48	100.897
2397.32	69.5509
2395.16	45.1863
2393	59.0612
2390.84	52.0876
2388.68	65.9458
2386.52	65.914
2384.36	52.0122
2382.2	55.4529
2380.03	51.9619
2377.87	48.4744
2375.7	76.1372
2373.53	48.4275
2371.36	72.6061
2369.19	65.6595
2367.02	48.3573
2364.85	58.6911
2362.68	69.0149
2360.5	62.0834
2358.33	48.2637
2356.15	68.9148
2353.97	75.7695
2351.8	65.4056
2349.62	86.0183
2347.44	106.611
2345.25	58.4358
2343.07	68.7147
2340.89	85.8517
2338.7	92.6749
2336.52	78.907
2334.33	72.0105
2332.14	95.9675
2329.95	95.9209
2327.76	65.0576
2325.57	78.7157
2323.38	64.9944
2321.19	102.573
2318.99	75.1837
2316.8	78.5629
2314.6	78.5247
2312.4	78.4866
2310.2	105.735
2308.01	57.9555
2305.8	74.9647
2303.6	57.8991
2301.4	64.6793
2299.2	47.6352
2296.99	85.0216
2294.79	61.1857
2292.58	44.1682
2290.37	54.3344
2288.16	61.0964
2285.95	74.6371
2283.74	47.4732
2281.53	67.7858
2279.31	64.3651
2277.1	91.4217
2274.88	43.9964
2272.67	60.8884
2270.45	84.526
2268.23	67.5878
2266.01	77.6881
2263.79	54.0175
2261.57	94.4845
2259.34	70.8288
2257.12	67.4231
2254.89	67.3902
2252.67	67.3573
2250.44	74.0568
2248.21	77.3853
2245.98	63.8957
2243.75	70.5871
2241.52	73.9122
2239.28	63.8021
2237.05	87.2655
2234.81	63.7397
2232.58	73.7678
2230.34	63.6774
2228.1	80.3953
2225.86	90.4005
2223.62	73.6236
2221.38	83.6222
2219.14	63.5218
2216.89	73.5155
2214.65	70.1396
2212.4	76.7819
2210.15	60.0607
2207.9	70.0365
2205.66	100.003
2203.4	109.95
2201.15	63.2733
2198.9	89.8706
2196.65	103.134
2194.39	73.1561
2192.13	86.4147
2189.88	102.982
2187.62	122.854
2185.36	116.156
2183.1	122.734
2180.84	89.5184
2178.57	86.1606
2176.31	89.4305
2174.05	69.5229
2171.78	99.2696
2169.51	76.0693
2167.24	99.1721
2164.97	75.9945
2162.7	75.9572
2160.43	56.1146
2158.16	105.576
2155.88	89.0356
2153.61	82.3998
2151.33	92.2424
2149.06	121.832
2146.78	98.7338
2144.5	88.8167
2142.22	108.5
2139.94	88.7292
2137.65	78.8316
2135.37	78.7927
2133.08	98.4424
2130.8	104.953
2128.51	98.3454
2126.22	81.9141
2123.93	88.4236
2121.64	101.473
2119.35	91.6081
2117.05	117.724
2114.76	107.86
2112.47	75.1381
2110.17	101.223
2107.87	117.491
2105.57	91.337
2103.27	94.5524
2100.97	107.541
2098.67	136.803
2096.37	120.457
2094.06	100.874
2091.76	87.8142
2089.45	113.777
2087.14	64.9832
2084.83	107.169
2082.52	100.624
2080.21	77.8642
2077.9	113.496
2075.58	110.198
2073.27	110.144
2070.95	110.089
2068.64	77.6716
2066.32	90.572
2064	129.324
2061.68	116.334
2059.36	122.736
2057.03	116.219
2054.71	77.4409
2052.38	99.9782
2050.06	125.717
2047.73	96.6571
2045.4	122.372
2043.07	86.9051
2040.74	112.599
2038.41	80.3878
2036.08	128.557
2033.74	115.644
2031.41	122.008
2029.07	105.901
2026.73	118.679
2024.39	118.62
2022.05	144.196
2019.71	121.705
2017.37	102.437
2015.03	124.783
2012.68	131.117
2010.33	131.052
2007.99	124.597
2005.64	89.4097
2003.29	153.197
2000.94	124.411
1998.59	149.856
1996.23	159.342
1993.88	165.634
1991.52	120.98
1989.17	130.466
1986.81	149.483
1984.45	149.409
1982.09	142.98
1979.73	165.139
1977.37	152.36
1975	152.284
1972.64	136.353
1970.27	158.47
1967.91	174.231
1965.54	174.144
1963.17	151.904
1960.8	158.154
1958.43	164.398
1956.05	139.037
1953.68	170.551
1951.3	183.092
1948.93	157.759
1946.55	189.217
1944.17	167.058
1941.79	176.425
1939.41	198.379
1937.02	138.481
1934.64	173.015
1932.26	157.208
1929.87	179.127
1927.48	213.588
1925.09	200.924
1922.7	194.547
1920.31	181.905
1917.92	213.161
1915.53	150.391
1913.13	206.684
1910.74	219.1
1908.34	212.733
1905.94	209.5
1903.54	196.893
1901.14	193.671
1898.74	206.062
1896.34	215.321
1893.93	202.736
1891.53	205.752
1889.12	211.881
1886.71	205.545
1884.3	214.78
1881.89	199.116
1879.48	242.551
1877.07	233.105
1874.66	220.562
1872.24	248.395
1869.82	257.581
1867.41	217.127
1864.99	254.221
1862.57	238.6
1860.15	201.314
1857.72	250.742
1855.3	253.709
1852.88	284.506
1850.45	262.727
1848.02	268.773
1845.59	231.584
1843.16	243.812
1840.73	249.859
1838.3	249.733
1835.87	234.199
1833.43	246.401
1831	261.669
1828.56	270.767
1826.12	246.028
1823.68	258.199
1821.24	251.924
1818.8	257.938
1816.36	242.462
1813.91	269.948
1811.47	285.142
1809.02	278.868
1806.57	306.294
1804.12	257.157
1801.67	266.206
1799.22	263.013
1796.77	244.54
1794.31	299.41
1791.86	302.312
1789.4	317.419
1786.94	292.854
1784.48	307.951
1782.02	313.89
1779.56	301.547
1777.1	325.749
1774.63	295.156
1772.17	328.461
1769.7	310.055
1767.23	337.242
1764.76	318.851
1762.29	339.935
1759.82	306.393
1757.35	306.238
1754.87	309.113
1752.4	327.13
1749.92	296.689
1747.44	302.59
1744.96	290.339
1742.48	362.74
1740	314.215
1737.51	347.272
1735.03	374.26
1732.54	362.003
1730.06	322.621
1727.57	304.376
1725.08	343.378
1722.59	379.33
1720.1	349.047
1717.6	336.839
1715.11	318.632
1712.61	360.531
1710.12	363.351
1707.62	357.163
1705.12	353.981
1702.62	362.795
1700.11	359.614
1697.61	383.392
1695.11	380.203
1692.6	362.056
1690.09	391.778
1687.58	364.676
1685.07	382.415
1682.56	400.137
1680.05	370.087
1677.54	396.745
1675.02	429.339
1672.51	420.18
1669.99	428.901
1667.47	395.935
1664.95	446.315
1662.43	469.878
1659.9	457.748
1657.38	427.806
1654.85	478.066
1652.33	442.207
1649.8	436.048
1647.27	438.79
1644.74	432.639
1642.21	485.729
1639.68	435.156
1637.14	458.603
1634.61	414.01
1632.07	458.133
1629.53	481.532
1626.99	442.9
1624.45	448.575
1621.91	436.547
1619.36	430.427
1616.82	415.473
1614.27	403.479
1611.72	400.328
1609.18	450.138
1606.63	485.194
1604.07	452.615
1601.52	390.694
1598.97	472.702
1596.41	419.638
1593.86	434.087
1591.3	486.632
1588.74	395.551
1586.18	448.061
1583.62	439.049
1581.05	488.557
1578.49	456.141
1575.92	420.837
1573.36	435.225
1570.79	467.115
1568.22	478.547
1565.65	489.966
1563.07	489.714
1560.5	463.24
1557.92	509.593
1555.35	486.046
1552.77	465.433
1550.19	494.268
1547.61	470.765
1545.03	458.904
1542.45	470.279
1539.86	490.347
1537.28	440.794
1534.69	475.348
1532.1	475.103
1529.51	483.544
1526.92	468.824
1524.33	488.829
1521.73	531.942
1519.14	525.888
1516.54	490.96
1513.94	519.571
1511.34	527.957
1508.74	470.014
1506.14	478.417
1503.54	501.213
1500.93	538.381
1498.33	523.715
1495.72	566.585
1493.11	491.552
1490.5	508.536
1487.89	525.502
1485.28	499.399
1482.66	542.169
1480.05	527.552
1477.43	581.726
1474.81	601.474
1472.19	578.26
1469.57	658.073
1466.95	706.347
1464.33	708.838
1461.7	665.619
1459.08	716.668
1456.45	741.98
1453.82	735.89
1451.19	672.79
1448.56	743.673
1445.92	786.004
1443.29	788.442
1440.65	850.619
1438.02	867.237
1435.38	795.738
1432.74	727.153
1430.1	658.64
1427.45	695.184
1424.81	629.594
1422.16	677.453
1419.52	626.105
1416.87	676.748
1414.22	611.302
1411.57	676.042
1408.92	630.455
1406.26	573.613
1403.61	576.138
1400.95	629.47
1398.29	575.537
1395.63	603.435
1392.97	625.666
1390.31	653.508
1387.65	594.044
1384.98	619.059
1382.32	703.109
1379.65	621.223
1376.98	657.422
1374.31	730.087
1371.64	726.899
1368.96	653.586
1366.29	698.103
1363.61	661.309
1360.94	666.565
1358.26	666.216
1355.58	699.44
1352.9	713.056
1350.21	693.118
1347.53	703.929
1344.84	711.936
1342.15	731.096
1339.47	691.667
1336.78	763.78
1334.08	677.012
1331.39	679.441
1328.7	679.085
1326	673.165
1323.3	703.394
1320.61	758.6
1317.91	716.543
1315.2	702.287
1312.5	657.528
1309.8	701.55
1307.09	723.353
1304.38	720.203
1301.68	786.27
1298.97	832.897
1296.25	898.835
1293.54	796.087
1290.83	776.329
1288.11	676.514
1285.39	684.438
1282.68	645.46
1279.96	686.474
1277.23	666.825
1274.51	592.115
1271.79	572.535
1269.06	550.224
1266.33	533.436
1263.61	533.155
1260.88	543.861
1258.14	477.686
1255.41	507.617
1252.68	501.864
1249.94	523.528
1247.2	509.554
1244.47	492.856
1241.73	426.916
1238.98	418.485
1236.24	437.401
1233.5	472.689
1230.75	434.208
1228	442.166
1225.25	455.573
1222.5	449.879
1219.75	446.916
1217	446.679
1214.25	405.61
1211.49	389.07
1208.73	399.742
1205.97	415.837
1203.21	426.483
1200.45	407.252
1197.69	423.318
1194.92	433.942
1192.16	431.001
1189.39	406.39
1186.62	408.882
1183.85	403.252
1181.08	375.989
1178.3	410.935
1175.53	380.994
1172.75	426.703
1169.97	431.875
1167.19	404.668
1164.41	420.631
1161.63	425.797
1158.84	422.878
1156.06	382.272
1153.27	414.356
1150.48	398.001
1147.69	408.54
1144.9	381.46
1142.11	367.832
1139.32	442.774
1136.52	415.718
1133.72	450.345
1130.92	519.764
1128.12	546.265
1125.32	479.065
1122.52	449.386
1119.71	441.126
1116.91	438.219
1114.1	421.961
1111.29	395.044
1108.48	405.505
1105.67	386.624
1102.85	413.067
1100.04	383.548
1097.22	420.612
1094.4	383.138
1091.58	388.252
1088.76	393.361
1085.94	379.868
1083.11	419.49
1080.29	403.345
1077.46	387.216
1074.63	400.263
1071.8	405.347
1068.97	450.145
1066.14	561.057
1063.3	521.08
1060.46	441.492
1057.63	385.768
1054.79	359.153
1051.95	353.682
1049.1	382.511
1046.26	398.125
1043.41	329.397
1040.57	313.418
1037.72	342.206
1034.87	331.499
1032.02	320.803
1029.16	336.399
1026.31	325.712
1023.45	336.038
1020.59	301.747
1017.73	327.81
1014.87	304.044
1012.01	311.74
1009.15	314.191
1006.28	366.359
1003.41	329.546
1000.55	329.368
997.676	370.993
994.804	300.291
991.931	328.837
989.056	305.185
986.18	286.771
983.302	333.518
980.422	260.42
977.541	262.883
974.659	332.979
971.775	332.8
968.889	337.818
966.002	353.219
963.113	293.325
960.223	280.195
957.331	298.195
954.437	303.217
951.542	321.185
948.646	302.89
945.748	294.964
942.848	315.493
939.947	315.322
937.044	297.069
934.139	309.818
931.233	299.329
928.326	304.325
925.417	329.937
922.506	316.877
919.594	360.478
916.68	331.975
913.765	339.512
910.848	370.176
907.929	354.56
905.009	362.072
902.087	387.54
899.164	338.593
896.239	346.101
893.312	422.783
890.384	373.896
887.454	345.538
884.523	388.84
881.59	350.277
878.656	350.087
875.72	408.639
872.782	387.996
869.843	397.991
866.902	400.324
863.96	405.204
861.016	397.342
858.07	384.398
855.123	445.252
852.174	457.725
849.224	462.559
846.272	495.329
843.318	472.211
840.363	416.132
837.406	365.185
834.447	397.936
831.487	359.721
828.525	377.248
825.562	359.329
822.597	349.017
819.631	351.354
816.662	351.163
813.693	335.822
810.721	338.162
807.748	358.155
804.774	345.356
801.797	332.57
798.819	322.316
795.84	332.207
792.859	321.964
789.876	319.274
786.892	341.713
783.906	311.392
780.918	371.458
777.929	346.17
774.938	361.024
771.945	350.803
768.951	350.611
765.955	325.39
762.957	382.749
759.958	340.035
756.957	339.849
753.955	359.643
750.951	329.492
747.945	356.754
744.938	344.092
741.929	353.871
738.918	333.752
735.906	355.972
732.892	350.801
729.876	365.528
726.859	355.387
723.84	347.74
720.819	354.997
717.797	387.057
714.773	332.289
711.748	403.98
708.72	346.786
705.691	361.45
702.661	376.097
699.629	410.512
696.595	368.269
693.559	370.536
690.522	387.615
687.483	387.401
684.442	394.587
681.4	369.721
678.356	413.86
675.311	376.701
672.263	415.865
669.214	324.638
666.164	361.33
663.111	370.957
660.057	378.119
657.001	365.64
653.944	377.702
650.885	372.591
647.824	389.534
644.762	374.628
641.698	381.763
638.632	357.094
635.564	447.343
632.495	393.346
629.424	405.338
626.351	412.435
623.277	395.133
620.201	424.168
617.123	392.26
614.044	401.783
610.963	408.862
607.88	420.797
604.795	376.806
601.709	405.753
598.621	395.815
595.531	424.72
592.44	397.802
589.347	409.703
586.252	394.939
583.155	426.2
580.057	435.645
576.957	416.052
573.855	442.414
570.752	434.92
567.647	444.338
564.54	434.437
561.431	455.906
558.321	400.202
555.209	390.342
552.095	433.472
548.979	423.604
545.862	454.64
542.743	437.558
539.622	415.689
536.5	456.283
533.376	470.43
530.25	426.989
527.122	429.149
523.992	443.287
520.861	416.697
517.728	418.858
514.594	411.448
511.457	435.127
508.319	473.116
505.179	453.747
502.037	489.296
498.894	469.939
495.749	448.22
492.602	486.094
489.453	435.812
486.303	452.23
483.15	444.84
479.996	458.857
476.841	413.453
473.683	451.219
470.524	498.437
467.363	481.553
464.2	483.655
461.035	483.384
457.869	480.745
454.701	487.577
451.531	506.228
448.359	458.66
445.186	460.766
442.011	517.186
438.834	479.132
435.655	516.606
432.474	518.674
429.292	518.383
426.108	529.867
422.922	524.863
419.734	541.035
416.544	500.764
413.353	500.483
410.16	514.292
406.965	582.067
403.768	567.666
400.57	623.612
397.37	524.852
394.167	550.317
390.964	521.922
387.758	580.106
384.55	575.104
381.341	565.435
378.13	586.133
374.917	581.135
371.702	604.134
368.486	585.143
365.267	542.875
362.047	558.869
358.825	581.827
355.601	569.869
352.376	602.093
349.148	604.077
345.919	619.991
342.688	545.377
339.455	598.416
336.22	588.806
332.984	644.077
329.745	622.873
326.505	634.093
323.263	601.354
320.019	644.934
316.773	674.603
313.526	625.733
310.276	641.533
307.025	641.17
303.772	679.993
300.517	598.976
297.26	633.174
294.001	653.526
290.741	639.356
287.479	618.307
284.214	659.307
280.948	629.086
277.681	702.158
274.411	655.893
271.139	680.733
267.866	705.545
264.59	702.855
261.313	707.032
258.034	649.46
254.753	735.941
251.471	689.839
248.186	755.652
244.9	716.434
241.611	793.559
238.321	793.107
235.029	817.712
231.735	744.4
228.439	805.406
225.141	757.196
221.842	822.669
218.54	863.084
215.237	839.893
211.932	800.846
208.624	802.657
205.315	881.513
202.005	824.391
198.692	925.779
195.377	841.548
192.06	838.807
188.742	849.627
185.422	871.725
182.099	801.259
178.775	854.94
175.449	881.505
172.121	921.559
168.791	889.506
165.46	929.509
162.126	917.731
158.79	957.671
155.453	945.889
152.113	1014.96
148.772	915.632
145.429	944.266
142.084	981.833
138.737	1017.12
135.388	1081.47
132.037	1114.41
128.684	1176.4
125.329	1104.2
121.973	1206.32
118.614	1250.28
115.253	1361.14
111.891	1331.36
108.527	1346.2
105.16	1207.32
101.792	1148.75
100.669	1173.01