File: Spicy-Raman/model_train_and_validate/Raman_Data/polyethylene/20191004 Set3Sample3_4 5_.txt
3201.26	16.8451
3199.48	37.8901
3197.7	54.7054
3195.92	25.2372
3194.13	37.8386
3192.35	54.631
3190.56	0
3188.78	75.5744
3186.99	37.7701
3185.2	50.3372
3183.42	33.5429
3181.63	46.1006
3179.84	29.3234
3178.05	66.9946
3176.25	8.37052
3174.46	54.3837
3172.67	16.7259
3170.87	54.3343
3169.08	87.731
3167.28	12.5273
3165.49	37.5649
3163.69	12.5159
3161.89	45.8709
3160.09	50.0182
3158.29	45.8292
3156.49	45.8084
3154.69	12.4875
3152.89	29.1243
3151.08	12.4762
3149.28	20.7841
3147.48	33.2395
3145.67	66.4488
3143.86	33.2093
3142.06	16.5971
3140.25	29.0317
3138.44	29.0184
3136.63	41.4361
3134.82	57.9841
3133.01	0
3131.19	33.1036
3129.38	41.3606
3127.57	33.0734
3125.75	41.3229
3123.94	20.6521
3122.12	49.5423
3120.3	20.6332
3118.49	49.4972
3116.67	32.9831
3114.85	61.8151
3113.03	37.0721
3111.21	24.7035
3109.38	61.7305
3107.56	57.5888
3105.74	32.8929
3103.91	24.6584
3102.09	53.4022
3100.26	61.5897
3098.43	20.5205
3096.61	41.0223
3094.78	28.7025
3092.95	24.5909
3091.12	53.256
3089.28	24.5685
3087.45	32.743
3085.62	65.456
3083.79	28.6239
3081.95	65.3962
3080.12	28.5977
3078.28	32.6682
3076.44	32.6532
3074.6	32.6383
3072.77	24.4675
3070.93	16.3042
3069.08	57.0387
3067.24	24.4339
3065.4	44.7751
3063.56	40.686
3061.71	32.5339
3059.87	52.8433
3058.02	12.189
3056.18	32.4892
3054.33	36.5336
3052.48	44.6317
3050.63	56.7779
3048.78	60.8056
3046.93	44.5703
3045.08	-4.04999
3043.23	-16.1925
3041.37	32.3702
3039.52	36.3998
3037.67	52.5533
3035.81	36.3664
3033.95	12.1166
3032.1	24.222
3030.24	28.246
3028.38	8.06659
3026.52	12.0943
3024.66	40.2959
3022.8	28.1942
3020.93	40.2589
3019.07	20.1202
3017.2	12.0666
3015.34	16.0814
3013.47	72.3329
3011.61	16.0666
3009.74	36.1332
3007.87	24.0777
3006	48.1333
3004.13	40.0926
3002.26	40.0742
3000.39	-4.00557
2998.51	24.0224
2996.64	24.0113
2994.77	32.0004
2992.89	0
2991.01	55.9491
2989.14	23.9671
2987.26	31.9414
2985.38	47.8901
2983.5	35.901
2981.62	51.8331
2979.74	71.7359
2977.85	3.98349
2975.97	39.8165
2974.09	47.7578
2972.2	55.6917
2970.32	43.7376
2968.43	43.7174
2966.54	59.5872
2964.65	31.7652
2962.76	59.5322
2960.87	75.3726
2958.98	55.5121
2957.09	63.4131
2955.2	79.2298
2953.3	39.5966
2951.41	71.2409
2949.51	59.34
2947.62	31.6334
2945.72	59.2852
2943.82	82.9609
2941.92	71.0764
2940.02	63.1499
2938.12	90.7359
2936.22	78.8643
2934.32	82.7692
2932.41	94.5496
2930.51	133.883
2928.6	129.885
2926.7	90.4843
2924.79	86.5102
2922.88	90.4006
2920.97	117.859
2919.06	117.805
2917.15	90.275
2915.24	129.465
2913.33	109.798
2911.42	129.345
2909.5	94.0256
2907.59	90.0661
2905.67	86.1102
2903.75	117.369
2901.84	132.956
2899.92	132.894
2898	140.646
2896.08	136.676
2894.16	132.709
2892.24	136.549
2890.31	116.988
2888.39	187.094
2886.46	179.215
2884.54	198.603
2882.61	163.479
2880.68	213.98
2878.76	202.215
2876.83	143.817
2874.9	81.5877
2872.97	120.383
2871.03	131.972
2869.1	124.151
2867.17	124.093
2865.23	170.549
2863.3	224.71
2861.36	147.155
2859.42	143.216
2857.48	108.329
2855.55	154.684
2853.61	154.612
2851.66	146.813
2849.72	193.085
2847.78	185.275
2845.84	150.466
2843.89	134.971
2841.95	104.072
2840	115.581
2838.05	96.2728
2836.1	57.7368
2834.16	76.9465
2832.21	53.8374
2830.25	69.1872
2828.3	76.8389
2826.35	34.5614
2824.4	46.0603
2822.44	84.4045
2820.49	11.5043
2818.53	42.1629
2816.57	45.9744
2814.61	34.4647
2812.66	38.2762
2810.7	38.2583
2808.73	42.0645
2806.77	68.8006
2804.81	45.8457
2802.85	48.0086
2800.88	43.081
2798.92	38.1512
2796.95	49.5733
2794.98	53.3617
2793.01	49.5269
2791.04	53.3118
2789.07	30.4496
2787.1	15.2177
2785.13	45.6317
2783.16	22.8052
2781.18	53.1871
2779.21	60.7568
2777.23	22.7731
2775.26	56.9062
2773.28	53.0875
2771.3	45.4823
2769.32	41.6725
2767.34	56.7996
2765.36	30.2789
2763.38	22.6985
2761.39	26.4692
2759.41	45.3545
2757.43	37.7777
2755.44	71.7439
2753.45	56.6133
2751.46	45.2694
2749.48	71.6429
2747.49	30.1513
2745.5	45.2057
2743.5	64.0113
2741.51	52.6905
2739.52	18.8092
2737.52	41.3608
2735.53	48.8579
2733.53	22.5392
2731.54	60.0763
2729.54	45.036
2727.54	86.2785
2725.54	44.9937
2723.54	44.9725
2721.54	63.6811
2719.53	52.4186
2717.53	52.3939
2715.52	52.3693
2713.52	63.5613
2711.51	59.7943
2709.5	41.0892
2707.5	44.8035
2705.49	67.1736
2703.48	48.4914
2701.47	22.3701
2699.45	67.0787
2697.44	29.7987
2695.43	44.677
2693.41	52.0985
2691.39	48.3544
2689.38	37.1782
2687.36	52.0249
2685.34	40.8574
2683.32	37.1256
2681.3	29.6864
2679.28	63.0539
2677.26	48.1949
2675.23	59.2888
2673.21	48.1494
2671.18	25.9144
2669.16	48.1039
2667.13	66.574
2665.1	70.2393
2663.07	51.7308
2661.04	25.8532
2659.01	44.2988
2656.98	44.2779
2654.94	33.1927
2652.91	40.5497
2650.87	47.8996
2648.84	29.4628
2646.8	47.8543
2644.76	47.8317
2642.72	25.7433
2640.68	40.4346
2638.64	40.4155
2636.6	40.3964
2634.56	80.7545
2632.51	40.3581
2630.47	55.0077
2628.42	54.9816
2626.38	62.283
2624.33	43.9436
2622.28	36.6023
2620.23	29.268
2618.18	47.5379
2616.13	73.1005
2614.07	32.8796
2612.02	62.0765
2609.97	65.6968
2607.91	51.0733
2605.85	43.7563
2603.8	51.0248
2601.74	40.0719
2599.68	40.0528
2597.62	47.3127
2595.56	47.2902
2593.49	87.2635
2591.43	87.222
2589.37	47.2228
2587.3	43.5696
2585.24	58.0651
2583.17	32.6461
2581.1	76.138
2579.03	43.4867
2576.96	43.466
2574.89	61.5476
2572.82	47.0434
2570.74	43.404
2568.67	39.7681
2566.59	32.522
2564.52	28.8947
2562.44	32.491
2560.36	36.0839
2558.28	21.64
2556.2	57.6793
2554.12	50.4453
2552.04	36.0152
2549.96	43.1976
2547.87	46.7751
2545.79	28.7709
2543.7	68.2984
2541.61	68.2658
2539.53	57.4596
2537.44	21.537
2535.35	25.1146
2533.26	28.6886
2531.16	78.8561
2529.07	35.8266
2526.98	64.457
2524.88	42.9508
2522.79	64.3954
2520.69	39.3339
2518.59	57.1857
2516.49	75.0203
2514.39	46.4189
2512.29	46.3967
2510.19	53.5091
2508.09	42.7868
2505.98	60.5856
2503.88	35.6215
2501.77	39.1649
2499.66	21.3525
2497.55	49.7986
2495.45	42.664
2493.33	39.09
2491.22	46.1751
2489.11	39.0525
2487	24.8397
2484.88	49.6556
2482.77	31.9061
2480.65	49.608
2478.54	63.7511
2476.42	28.3202
2474.3	17.6916
2472.18	60.1227
2470.06	53.024
2467.93	24.7327
2465.81	45.91
2463.69	45.888
2461.56	42.3378
2459.43	52.8968
2457.31	66.9705
2455.18	52.846
2453.05	38.7351
2450.92	84.4724
2448.79	56.2879
2446.65	52.7445
2444.52	52.7191
2442.39	59.7196
2440.25	31.6011
2438.11	59.6622
2435.98	73.6649
2433.84	59.6048
2431.7	38.5492
2429.56	31.5251
2427.41	42.0132
2425.27	41.993
2423.13	24.4841
2420.98	38.4565
2418.84	27.9549
2416.69	38.4194
2414.54	27.9279
2412.39	48.8503
2410.24	45.3392
2408.09	17.4297
2405.94	52.264
2403.79	55.7213
2401.63	41.7708
2399.48	27.8338
2397.32	66.0733
2395.16	66.0414
2393	27.7935
2390.84	41.6701
2388.68	55.5333
2386.52	72.8523
2384.36	31.2073
2382.2	65.8503
2380.03	55.4261
2377.87	72.7115
2375.7	65.7548
2373.53	62.2639
2371.36	72.6061
2369.19	58.7479
2367.02	24.1786
2364.85	65.5959
2362.68	37.9582
2360.5	27.5926
2358.33	65.5007
2356.15	58.5775
2353.97	44.7729
2351.8	75.7328
2349.62	58.4925
2347.44	61.9032
2345.25	41.2488
2343.07	58.4075
2340.89	65.2473
2338.7	58.3508
2336.52	51.4611
2334.33	58.2942
2332.14	41.1289
2329.95	61.6634
2327.76	71.9058
2325.57	61.6036
2323.38	68.4152
2321.19	68.382
2318.99	44.4267
2316.8	34.1578
2314.6	58.04
2312.4	71.6617
2310.2	57.9836
2308.01	88.6378
2305.8	68.1497
2303.6	61.3049
2301.4	74.8918
2299.2	47.6352
2296.99	47.6121
2294.79	71.3834
2292.58	54.3609
2290.37	54.3344
2288.16	61.0964
2285.95	47.4963
2283.74	33.9094
2281.53	61.0072
2279.31	54.2022
2277.1	64.3338
2274.88	47.3807
2272.67	67.6538
2270.45	47.3345
2268.23	47.3115
2266.01	84.4436
2263.79	50.6414
2261.57	40.4934
2259.34	43.8464
2257.12	74.1654
2254.89	70.7597
2252.67	60.6216
2250.44	90.888
2248.21	33.6458
2245.98	67.2587
2243.75	30.2516
2241.52	53.7544
2239.28	80.5921
2237.05	30.2073
2234.81	73.8039
2232.58	57.0024
2230.34	30.163
2228.1	73.6957
2225.86	80.356
2223.62	46.8514
2221.38	97.0018
2219.14	63.5218
2216.89	80.1988
2214.65	86.8394
2212.4	90.1353
2210.15	60.0607
2207.9	43.3559
2205.66	66.6688
2203.4	36.6499
2201.15	76.594
2198.9	66.5708
2196.65	63.2112
2194.39	59.855
2192.13	83.0911
2189.88	43.1862
2187.62	69.7281
2185.36	73.0126
2183.1	69.6596
2180.84	49.7324
2178.57	72.9051
2176.31	79.4938
2174.05	62.9017
2171.78	79.4157
2169.51	79.3767
2167.24	69.4204
2164.97	66.0822
2162.7	56.1423
2160.43	85.8224
2158.16	72.5832
2155.88	69.2499
2153.61	69.2158
2151.33	59.2987
2149.06	59.2695
2146.78	59.2403
2144.5	42.7636
2142.22	75.6214
2139.94	42.7215
2137.65	52.5544
2135.37	52.5285
2133.08	62.3468
2130.8	52.4767
2128.51	65.5636
2126.22	68.8078
2123.93	75.3238
2121.64	88.3799
2119.35	85.0646
2117.05	68.6721
2114.76	26.1479
2112.47	39.2025
2110.17	84.8968
2107.87	71.8003
2105.57	71.7648
2103.27	71.7294
2100.97	91.2468
2098.67	78.1729
2096.37	94.4123
2094.06	65.0797
2091.76	52.038
2089.45	58.5138
2087.14	71.4815
2084.83	74.6937
2082.52	68.1649
2080.21	74.6198
2077.9	51.8838
2075.58	74.546
2073.27	77.7486
2070.95	71.2342
2068.64	84.1442
2066.32	64.6943
2064	54.9629
2061.68	90.4822
2059.36	61.3682
2057.03	103.306
2054.71	74.2142
2052.38	77.4025
2050.06	67.6936
2047.73	64.4381
2045.4	99.8295
2043.07	77.249
2040.74	115.816
2038.41	90.0344
2036.08	89.9896
2033.74	77.0957
2031.41	105.954
2029.07	70.6008
2026.73	60.9431
2024.39	86.5604
2022.05	86.5173
2019.71	60.8523
2017.37	76.8278
2015.03	70.3905
2012.68	108.731
2010.33	76.7132
2007.99	95.8438
2005.64	79.8301
2003.29	67.0239
2000.94	102.081
1998.59	114.784
1996.23	95.6054
1993.88	127.41
1991.52	101.878
1989.17	105.009
1986.81	133.581
1984.45	98.5463
1982.09	127.093
1979.73	98.4481
1977.37	85.7023
1975	114.213
1972.64	107.814
1970.27	107.76
1967.91	123.545
1965.54	117.151
1963.17	113.928
1960.8	98.0556
1958.43	151.752
1956.05	123.237
1953.68	120.017
1951.3	97.8597
1948.93	132.518
1946.55	138.759
1944.17	122.929
1941.79	119.717
1939.41	132.253
1937.02	141.629
1934.64	97.5175
1932.26	138.343
1929.87	138.273
1927.48	141.345
1925.09	182.087
1922.7	147.479
1920.31	159.951
1917.92	150.466
1915.53	153.524
1913.13	169.105
1910.74	172.15
1908.34	150.165
1905.94	131.328
1903.54	212.52
1901.14	149.939
1898.74	128.008
1896.34	162.271
1893.93	146.594
1891.53	143.403
1889.12	174.49
1886.71	196.202
1884.3	180.54
1881.89	189.783
1879.48	192.797
1877.07	174.052
1874.66	149.112
1872.24	204.926
1869.82	195.513
1867.41	164.396
1864.99	173.614
1862.57	210.711
1860.15	182.731
1857.72	188.83
1855.3	198.017
1852.88	216.472
1850.45	197.818
1848.02	210.075
1845.59	231.584
1843.16	197.519
1840.73	197.419
1838.3	234.317
1835.87	218.791
1833.43	187.881
1831	181.629
1828.56	193.845
1826.12	233.726
1823.68	252.051
1821.24	215.057
1818.8	227.231
1816.36	227.116
1813.91	236.204
1811.47	251.415
1809.02	183.869
1806.57	245.035
1804.12	241.85
1801.67	226.428
1799.22	217.139
1796.77	207.859
1794.31	219.974
1791.86	250.4
1789.4	274.69
1786.94	265.399
1784.48	250.019
1782.02	240.75
1779.56	255.858
1777.1	197.885
1774.63	234.299
1772.17	255.469
1769.7	246.22
1767.23	273.44
1764.76	258.118
1762.29	288.338
1759.82	251.788
1757.35	251.661
1754.87	260.624
1752.4	242.318
1749.92	278.525
1747.44	260.228
1744.96	299.412
1742.48	290.192
1740	308.172
1737.51	286.877
1735.03	295.786
1732.54	277.535
1730.06	286.44
1727.57	247.117
1725.08	246.991
1722.59	252.887
1720.1	267.803
1717.6	288.719
1715.11	309.614
1712.61	309.456
1710.12	303.293
1707.62	267.122
1705.12	269.985
1702.62	317.821
1700.11	275.704
1697.61	305.516
1695.11	323.322
1692.6	323.157
1690.09	322.993
1687.58	298.915
1685.07	310.713
1682.56	322.498
1680.05	313.38
1677.54	343.05
1675.02	307.097
1672.51	321.84
1669.99	306.783
1667.47	345.327
1664.95	389.782
1662.43	380.661
1659.9	356.687
1657.38	341.65
1654.85	397.893
1652.33	341.301
1649.8	358.924
1647.27	332.057
1644.74	317.071
1642.21	385.029
1639.68	352.269
1637.14	325.46
1634.61	381.48
1632.07	384.241
1629.53	392.906
1626.99	383.847
1624.45	365.943
1621.91	333.309
1619.36	395.049
1616.82	353.594
1614.27	335.742
1611.72	365.005
1609.18	355.992
1606.63	355.809
1604.07	364.443
1601.52	317.255
1598.97	375.813
1596.41	355.078
1593.86	319.7
1591.3	363.508
1588.74	348.671
1586.18	380.705
1583.62	380.509
1581.05	394.941
1578.49	362.574
1575.92	341.93
1573.36	365.122
1570.79	402.887
1568.22	396.844
1565.65	379.14
1563.07	393.52
1560.5	375.836
1557.92	390.202
1555.35	413.285
1552.77	392.709
1550.19	398.322
1547.61	415.552
1545.03	386.293
1542.45	374.482
1539.86	414.909
1537.28	403.095
1534.69	417.379
1532.1	391.091
1529.51	387.993
1526.92	396.475
1524.33	413.625
1521.73	396.065
1519.14	439.203
1516.54	412.984
1513.94	432.976
1511.34	429.867
1508.74	409.46
1506.14	443.832
1503.54	420.558
1500.93	443.373
1498.33	428.756
1495.72	414.153
1493.11	416.813
1490.5	448.201
1487.89	430.739
1485.28	401.815
1482.66	430.293
1480.05	473.077
1477.43	481.429
1474.81	524.141
1472.19	458.028
1469.57	523.598
1466.95	554.783
1464.33	554.495
1461.7	559.92
1459.08	585.327
1456.45	610.707
1453.82	576.162
1451.19	584.415
1448.56	564.166
1445.92	646.46
1443.29	637.585
1440.65	688.461
1438.02	693.79
1435.38	690.587
1432.74	565.248
1430.1	553.598
1427.45	561.822
1424.81	547.35
1422.16	623.597
1419.52	509.95
1416.87	512.516
1414.22	506.589
1411.57	531.782
1408.92	517.369
1406.26	542.531
1403.61	454.697
1400.95	462.928
1398.29	493.721
1395.63	482.184
1392.97	512.934
1390.31	515.483
1387.65	501.137
1384.98	548.711
1382.32	584.986
1379.65	534.083
1376.98	587.185
1374.31	536.333
1371.64	578.151
1368.96	569.434
1366.29	580.35
1363.61	543.619
1360.94	518.128
1358.26	573.841
1355.58	573.541
1352.9	634.759
1350.21	558.966
1347.53	558.674
1344.84	561.173
1342.15	588.783
1339.47	571.741
1336.78	599.316
1334.08	548.853
1331.39	540.212
1328.7	592.808
1326	586.933
1323.3	597.746
1320.61	594.654
1317.91	572.123
1315.2	596.805
1312.5	554.876
1309.8	529.629
1307.09	631.895
1304.38	631.563
1301.68	664.453
1298.97	744.35
1296.25	708.005
1293.54	644.056
1290.83	555.31
1288.11	527.405
1285.39	529.887
1282.68	513.058
1279.96	548.628
1277.23	476.697
1274.51	481.954
1271.79	467.937
1269.06	420.922
1266.33	365.706
1263.61	461.701
1260.88	420.256
1258.14	433.761
1255.41	392.374
1252.68	394.91
1249.94	400.183
1247.2	380.795
1244.47	347.737
1241.73	344.817
1238.98	363.781
1236.24	355.388
1233.5	322.412
1230.75	357.743
1228	300.236
1225.25	332.813
1222.5	313.552
1219.75	332.462
1217	324.115
1214.25	315.777
1211.49	323.772
1208.73	326.32
1205.97	298.968
1203.21	344.989
1200.45	304.082
1197.69	333.77
1194.92	328.169
1192.16	303.598
1189.39	281.763
1186.62	308.692
1183.85	324.767
1181.08	311.07
1178.3	313.608
1175.53	308.038
1172.75	321.378
1169.97	288.816
1167.19	296.756
1164.41	339.74
1161.63	301.831
1158.84	296.284
1156.06	312.279
1153.27	317.494
1150.48	295.811
1147.69	298.342
1144.9	290.124
1142.11	292.655
1139.32	276.398
1136.52	332.574
1133.72	380.648
1130.92	442.067
1128.12	398.987
1125.32	329.19
1122.52	329.015
1119.71	315.472
1116.91	288.583
1114.1	288.429
1111.29	266.922
1108.48	288.122
1105.67	282.635
1102.85	317.129
1100.04	311.632
1097.22	322.115
1094.4	228.819
1091.58	263.267
1088.76	257.811
1085.94	247.047
1083.11	265.5
1080.29	273.319
1077.46	267.869
1074.63	273.027
1071.8	309.971
1068.97	283.327
1066.14	370.509
1063.3	388.827
1060.46	338.389
1057.63	272.151
1054.79	227.112
1051.95	242.826
1049.1	232.144
1046.26	224.11
1043.41	245.071
1040.57	226.504
1037.72	250.073
1034.87	231.523
1032.02	249.805
1029.16	210.249
1026.31	210.137
1023.45	225.776
1020.59	215.159
1017.73	209.798
1014.87	186.096
1012.01	191.235
1009.15	188.514
1006.28	222.432
1003.41	206.62
1000.55	211.737
997.676	182.884
994.804	216.732
991.931	219.225
989.056	206.065
986.18	239.845
983.302	190.209
980.422	166.669
977.541	182.196
974.659	215.916
971.775	176.8
968.889	200.092
966.002	197.387
963.113	205.068
960.223	215.335
957.331	178.917
954.437	204.736
951.542	168.363
948.646	209.693
945.748	186.293
942.848	217.224
939.947	214.523
937.044	219.573
934.139	188.473
931.233	209.014
928.326	193.427
925.417	198.478
922.506	198.37
919.594	221.437
916.68	205.876
913.765	241.773
910.848	236.501
907.929	192.696
905.009	259.356
902.087	218.152
899.164	228.294
896.239	276.881
893.312	263.919
890.384	271.459
887.454	238.038
884.523	225.118
881.59	245.45
878.656	242.761
875.72	245.183
872.782	237.393
869.843	239.815
866.902	252.434
863.96	239.554
861.016	267.442
858.07	236.748
855.123	272.24
852.174	315.322
849.224	282.11
846.272	276.876
843.318	269.109
840.363	261.351
837.406	230.777
834.447	250.928
831.487	250.791
828.525	220.272
825.562	235.335
822.597	247.853
819.631	227.496
816.662	207.161
813.693	224.723
810.721	217.029
807.748	211.867
804.774	204.188
801.797	211.635
798.819	239.219
795.84	234.055
792.859	208.774
789.876	211.174
786.892	193.47
783.906	183.319
780.918	173.18
777.929	195.661
774.938	260.739
771.945	212.988
768.951	205.358
765.955	197.737
762.957	232.651
759.958	220.023
756.957	222.401
753.955	252.249
750.951	204.684
747.945	184.614
744.938	201.967
741.929	219.3
738.918	204.236
735.906	211.592
732.892	218.94
729.876	211.36
726.859	213.729
723.84	226.031
720.819	186.187
717.797	205.934
714.773	205.821
711.748	200.751
708.72	220.457
705.691	277.277
702.661	230.112
699.629	227.513
696.595	207.615
693.559	197.619
690.522	249.357
687.483	219.61
684.442	249.083
681.4	248.946
678.356	226.638
675.311	246.209
672.263	236.231
669.214	245.938
666.164	228.596
663.111	243.21
660.057	240.621
657.001	223.311
653.944	220.735
650.885	235.321
647.824	235.191
644.762	235.061
641.698	247.167
638.632	222.572
635.564	229.783
632.495	251.644
629.424	256.388
626.351	287.972
623.277	246.349
620.201	277.903
617.123	238.767
614.044	211.849
610.963	272.575
607.88	269.991
604.795	250.394
601.709	257.544
598.621	254.973
595.531	242.697
592.44	235.286
589.347	259.398
586.252	249.562
583.155	232.473
580.057	266.227
576.957	251.566
573.855	249.009
570.752	282.698
567.647	258.392
564.54	238.94
561.431	231.571
558.321	250.729
555.209	243.361
552.095	243.226
548.979	279.193
545.862	247.767
542.743	245.225
539.622	266.714
536.5	278.573
533.376	247.216
530.25	247.078
527.122	256.53
523.992	256.388
520.861	251.455
517.728	277.643
514.594	277.488
511.457	251.035
508.319	255.674
505.179	284.189
502.037	260.162
498.894	288.643
495.749	281.329
492.602	264.493
489.453	233.386
486.303	266.577
483.15	278.323
479.996	278.167
476.841	263.755
473.683	273.107
470.524	277.701
467.363	258.568
464.2	303.47
461.035	277.235
457.869	298.394
454.701	291.126
451.531	279.135
448.359	304.985
445.186	283.548
442.011	295.197
438.834	280.871
435.655	304.302
432.474	318.277
429.292	306.317
426.108	310.856
422.922	296.559
419.734	303.45
416.544	336.194
413.353	331.305
410.16	321.726
406.965	328.586
403.768	384.699
400.57	356.35
397.37	330.376
394.167	311.456
390.964	330.004
387.758	341.514
384.55	364.7
381.341	348.14
378.13	392.312
374.917	361.751
371.702	363.88
368.486	366.006
365.267	361.14
362.047	323.678
358.825	384.006
355.601	362.856
352.376	334.755
349.148	346.183
345.919	332.055
342.688	338.83
339.455	405.902
336.22	377.856
332.984	396.177
329.745	377.429
326.505	391.101
323.263	381.628
320.019	349.05
316.773	406.61
313.526	387.908
310.276	350.766
307.025	431.29
303.772	412.606
300.517	387.031
297.26	370.695
294.001	377.388
290.741	386.374
287.479	406.842
284.214	404.314
280.948	388.013
277.681	417.623
274.411	382.986
271.139	424.026
267.866	394.006
264.59	382.335
261.313	400.423
258.034	445.932
254.753	420.538
251.471	424.867
248.186	424.626
244.9	390.16
241.611	437.826
238.321	446.693
235.029	482.883
231.735	455.29
228.439	475.508
225.141	518.441
221.842	413.607
218.54	456.526
215.237	469.886
211.932	483.23
208.624	480.687
205.315	430.559
202.005	491.464
198.692	525.136
195.377	475.068
192.06	508.711
188.742	503.901
185.422	494.58
182.099	550.724
178.775	512.062
175.449	547.841
172.121	531.755
168.791	583.246
165.46	535.649
162.126	596.075
158.79	582.246
155.453	584.159
152.113	608.526
148.772	608.177
145.429	630.258
142.084	607.481
138.737	586.97
135.388	660.523
132.037	655.669
128.684	715.678
125.329	692.916
121.973	748.367
118.614	754.636
115.253	801.062
111.891	758.23
108.527	809.058
105.16	761.815
101.792	705.721
100.669	701.135