File: Spicy-Raman/model_train_and_validate/Raman_Data/polyethylene/20191004 Set3Sample3_11 5_.txt
3201.26	16.8451
3199.48	46.3101
3197.7	21.0405
3195.92	37.8558
3194.13	33.6343
3192.35	12.6072
3190.56	37.8043
3188.78	41.9858
3186.99	20.9834
3185.2	12.5843
3183.42	41.9287
3181.63	58.6735
3179.84	41.8906
3178.05	54.4331
3176.25	50.2231
3174.46	20.9168
3172.67	37.6332
3170.87	62.6935
3169.08	66.8427
3167.28	12.5273
3165.49	20.8694
3163.69	58.4077
3161.89	50.041
3160.09	54.1864
3158.29	58.3281
3156.49	16.6576
3154.69	12.4875
3152.89	12.4818
3151.08	29.111
3149.28	37.4115
3147.48	16.6198
3145.67	62.2957
3143.86	33.2093
3142.06	45.642
3140.25	41.4738
3138.44	29.0184
3136.63	29.0052
3134.82	41.4172
3133.01	33.1187
3131.19	57.9313
3129.38	49.6327
3127.57	45.476
3125.75	20.6615
3123.94	49.5649
3122.12	45.4138
3120.3	37.1398
3118.49	70.121
3116.67	41.2288
3114.85	41.21
3113.03	37.0721
3111.21	45.2897
3109.38	8.23073
3107.56	53.4754
3105.74	8.22322
3103.91	12.3292
3102.09	28.755
3100.26	32.8479
3098.43	24.6247
3096.61	41.0223
3094.78	41.0036
3092.95	53.2803
3091.12	16.3865
3089.28	28.6632
3087.45	36.8358
3085.62	24.546
3083.79	36.8022
3081.95	28.6108
3080.12	16.3416
3078.28	24.5011
3076.44	8.16331
3074.6	53.0372
3072.77	12.2338
3070.93	28.5324
3069.08	44.8161
3067.24	32.5786
3065.4	12.2114
3063.56	16.2744
3061.71	44.7341
3059.87	48.7784
3058.02	56.8821
3056.18	28.428
3054.33	48.7114
3052.48	28.402
3050.63	44.6112
3048.78	20.2685
3046.93	8.1037
3045.08	8.09998
3043.23	12.1444
3041.37	16.1851
3039.52	32.3554
3037.67	32.3405
3035.81	52.5292
3033.95	64.6217
3032.1	20.185
3030.24	36.3163
3028.38	44.3662
3026.52	32.2515
3024.66	24.1775
3022.8	4.02774
3020.93	44.2848
3019.07	48.2885
3017.2	4.02219
3015.34	48.2441
3013.47	60.2774
3011.61	12.0499
3009.74	36.1332
3007.87	36.1166
3006	40.1111
3004.13	40.0926
3002.26	52.0964
3000.39	-12.0167
2998.51	44.041
2996.64	16.0075
2994.77	52.0006
2992.89	19.991
2991.01	31.9709
2989.14	27.9616
2987.26	39.9268
2985.38	75.826
2983.5	35.901
2981.62	27.9101
2979.74	39.8533
2977.85	47.8019
2975.97	35.8349
2974.09	39.7982
2972.2	31.8238
2970.32	35.7853
2968.43	79.4862
2966.54	55.6147
2964.65	47.6477
2962.76	47.6257
2960.87	11.9009
2958.98	51.5469
2957.09	59.4498
2955.2	83.1912
2953.3	67.3142
2951.41	59.3674
2949.51	63.296
2947.62	39.5417
2945.72	79.0469
2943.82	98.7629
2941.92	94.7686
2940.02	67.0967
2938.12	55.2306
2936.22	106.467
2934.32	110.359
2932.41	70.9122
2930.51	66.9417
2928.6	74.7825
2926.7	86.5502
2924.79	86.5102
2922.88	106.122
2920.97	86.4301
2919.06	106.024
2917.15	121.675
2915.24	105.926
2913.33	117.641
2911.42	97.9887
2909.5	94.0256
2907.59	74.4024
2905.67	129.165
2903.75	82.158
2901.84	121.225
2899.92	109.442
2898	128.926
2896.08	105.436
2894.16	136.613
2892.24	120.944
2890.31	81.8915
2888.39	93.5469
2886.46	89.6075
2884.54	112.931
2882.61	163.479
2880.68	143.95
2878.76	101.107
2876.83	77.7387
2874.9	135.98
2872.97	112.616
2871.03	97.0379
2869.1	100.873
2867.17	89.1919
2865.23	139.54
2863.3	182.092
2861.36	131.665
2859.42	119.992
2857.48	119.936
2855.55	143.083
2853.61	115.959
2851.66	142.949
2849.72	127.436
2847.78	192.995
2845.84	111.885
2843.89	80.9824
2841.95	80.9446
2840	115.581
2838.05	88.571
2836.1	65.435
2834.16	53.8625
2832.21	88.4472
2830.25	65.3435
2828.3	34.5775
2826.35	53.7621
2824.4	38.3836
2822.44	42.2022
2820.49	23.0087
2818.53	42.1629
2816.57	49.8056
2814.61	49.7823
2812.66	30.621
2810.7	65.0391
2808.73	11.4721
2806.77	26.7558
2804.81	26.7433
2802.85	26.7308
2800.88	38.169
2798.92	26.7058
2796.95	26.6933
2794.98	49.5501
2793.01	19.0488
2791.04	57.1197
2789.07	19.031
2787.1	11.4133
2785.13	30.4211
2783.16	11.4026
2781.18	30.3926
2779.21	18.9865
2777.23	41.7507
2775.26	53.1124
2773.28	37.9197
2771.3	37.9019
2769.32	26.5189
2767.34	34.0797
2765.36	34.0638
2763.38	11.3493
2761.39	37.8131
2759.41	56.6931
2757.43	37.7777
2755.44	41.5359
2753.45	41.5165
2751.46	45.2694
2749.48	37.7068
2747.49	41.458
2745.5	52.74
2743.5	67.7767
2741.51	48.9268
2739.52	45.142
2737.52	30.0805
2735.53	37.583
2733.53	56.348
2731.54	30.0382
2729.54	30.024
2727.54	56.2686
2725.54	52.4927
2723.54	18.7386
2721.54	44.9514
2719.53	41.186
2717.53	37.4242
2715.52	26.1846
2713.52	29.9112
2711.51	48.5828
2709.5	63.5015
2707.5	48.5371
2705.49	41.0505
2703.48	26.1107
2701.47	52.1969
2699.45	74.5318
2697.44	44.698
2695.43	22.3385
2693.41	55.8199
2691.39	59.5131
2689.38	52.0494
2687.36	40.8767
2685.34	59.4289
2683.32	44.5507
2681.3	37.108
2679.28	40.7996
2677.26	22.2438
2675.23	37.0555
2673.21	51.8532
2671.18	66.6369
2669.16	51.8042
2667.13	40.6841
2665.1	48.0585
2663.07	51.7308
2661.04	29.5465
2659.01	51.6819
2656.98	36.8982
2654.94	18.4404
2652.91	14.7453
2650.87	47.8996
2648.84	66.2912
2646.8	40.4921
2644.76	69.9078
2642.72	36.7762
2640.68	18.3794
2638.64	25.719
2636.6	44.0688
2634.56	55.0599
2632.51	55.0338
2630.47	40.339
2628.42	43.9853
2626.38	54.9556
2624.33	-7.32393
2622.28	43.9228
2620.23	29.268
2618.18	47.5379
2616.13	36.5503
2614.07	51.1461
2612.02	36.5156
2609.97	40.1481
2607.91	18.2405
2605.85	25.5245
2603.8	47.3802
2601.74	69.2151
2599.68	29.1293
2597.62	69.1493
2595.56	29.1017
2593.49	58.1757
2591.43	54.5138
2589.37	29.0602
2587.3	50.8312
2585.24	54.4361
2583.17	25.3914
2581.1	50.7587
2579.03	36.2389
2576.96	61.5769
2574.89	25.3431
2572.82	36.1872
2570.74	25.319
2568.67	54.2292
2566.59	54.2033
2564.52	32.5065
2562.44	36.1011
2560.36	43.3007
2558.28	39.6734
2556.2	39.6545
2554.12	28.8259
2552.04	50.4213
2549.96	25.1986
2547.87	32.3828
2545.79	50.3492
2543.7	46.7305
2541.61	53.8941
2539.53	28.7298
2537.44	61.0216
2535.35	39.4657
2533.26	53.7912
2531.16	57.3499
2529.07	78.8184
2526.98	39.3904
2524.88	42.9508
2522.79	60.8179
2520.69	28.6065
2518.59	35.741
2516.49	42.8687
2514.39	49.9896
2512.29	46.3967
2510.19	21.4036
2508.09	71.3113
2505.98	39.2024
2503.88	14.2486
2501.77	42.7254
2499.66	28.4699
2497.55	39.1274
2495.45	46.2194
2493.33	63.9654
2491.22	28.4154
2489.11	99.4064
2487	56.7764
2484.88	42.5619
2482.77	60.2671
2480.65	81.4988
2478.54	53.1259
2476.42	46.0204
2474.3	24.7683
2472.18	45.9762
2470.06	70.6987
2467.93	38.8656
2465.81	49.4416
2463.69	42.3582
2461.56	59.9786
2459.43	42.3175
2457.31	45.8219
2455.18	52.846
2453.05	73.9489
2450.92	49.2756
2448.79	49.2519
2446.65	45.7119
2444.52	63.263
2442.39	35.1292
2440.25	49.1572
2438.11	73.7003
2435.98	35.0785
2433.84	31.5555
2431.7	45.5582
2429.56	52.5418
2427.41	70.022
2425.27	62.9895
2423.13	48.9682
2420.98	41.9525
2418.84	17.4718
2416.69	10.478
2414.54	27.9279
2412.39	45.361
2410.24	45.3392
2408.09	48.8032
2405.94	52.264
2403.79	41.791
2401.63	45.2517
2399.48	62.626
2397.32	41.7305
2395.16	72.9932
2393	24.3193
2390.84	38.1976
2388.68	38.1792
2386.52	55.5065
2384.36	69.3496
2382.2	48.5213
2380.03	65.8185
2377.87	58.8617
2375.7	48.4509
2373.53	51.8866
2371.36	65.6912
2369.19	58.7479
2367.02	58.7195
2364.85	62.1435
2362.68	62.1135
2360.5	65.5325
2358.33	51.7111
2356.15	37.9031
2353.97	44.7729
2351.8	75.7328
2349.62	48.1703
2347.44	30.9516
2345.25	79.0602
2343.07	72.1504
2340.89	27.4725
2338.7	20.5944
2336.52	44.5996
2334.33	61.7233
2332.14	51.4111
2329.95	58.2377
2327.76	58.2094
2325.57	99.2502
2323.38	88.9398
2321.19	75.2202
2318.99	64.9313
2316.8	40.9893
2314.6	58.04
2312.4	68.2492
2310.2	37.5188
2308.01	61.3646
2305.8	78.3722
2303.6	51.0875
2301.4	44.2543
2299.2	61.2453
2296.99	34.0086
2294.79	40.7905
2292.58	61.156
2290.37	81.5016
2288.16	67.8849
2285.95	50.8889
2283.74	64.4279
2281.53	50.8393
2279.31	71.1404
2277.1	60.9478
2274.88	67.6868
2272.67	60.8884
2270.45	57.4777
2268.23	50.6909
2266.01	50.6661
2263.79	87.7785
2261.57	53.9912
2259.34	94.4384
2257.12	57.3096
2254.89	64.0207
2252.67	60.6216
2250.44	63.9582
2248.21	90.8436
2245.98	43.7181
2243.75	53.7806
2241.52	73.9122
2239.28	67.1601
2237.05	83.9091
2234.81	83.8681
2232.58	63.7086
2230.34	60.326
2228.1	63.6463
2225.86	63.6151
2223.62	36.8118
2221.38	76.9324
2219.14	80.238
2216.89	56.8075
2214.65	56.7796
2212.4	90.1353
2210.15	70.0709
2207.9	73.3716
2205.66	43.3347
2203.4	116.613
2201.15	23.3112
2198.9	33.2854
2196.65	36.596
2194.39	86.4572
2192.13	83.0911
2189.88	49.8302
2187.62	69.7281
2185.36	82.9688
2183.1	76.2939
2180.84	86.2029
2178.57	66.2774
2176.31	82.806
2174.05	99.3184
2171.78	59.5618
2169.51	69.4546
2167.24	82.6434
2164.97	52.8658
2162.7	56.1423
2160.43	56.1146
2158.16	105.576
2155.88	69.2499
2153.61	56.0319
2151.33	72.4762
2149.06	49.3912
2146.78	85.5693
2144.5	92.1062
2142.22	72.3335
2139.94	69.0116
2137.65	59.1237
2135.37	68.9436
2133.08	68.9097
2130.8	62.3161
2128.51	65.5636
2126.22	45.8719
2123.93	85.1486
2121.64	58.92
2119.35	55.6192
2117.05	62.1319
2114.76	81.7122
2112.47	71.8712
2110.17	81.6315
2107.87	68.5366
2105.57	68.5028
2103.27	68.4689
2100.97	68.4351
2098.67	91.2017
2096.37	74.8787
2094.06	87.8576
2091.76	65.0475
2089.45	71.5169
2087.14	64.9832
2084.83	110.417
2082.52	74.6568
2080.21	81.1085
2077.9	107.01
2075.58	87.5105
2073.27	90.7067
2070.95	71.2342
2068.64	74.4353
2066.32	84.1025
2064	106.693
2061.68	90.4822
2059.36	71.0579
2057.03	103.306
2054.71	96.8011
2052.38	87.0778
2050.06	87.0346
2047.73	109.545
2045.4	83.728
2043.07	106.217
2040.74	90.0791
2038.41	93.2499
2036.08	73.9201
2033.74	109.219
2031.41	125.218
2029.07	93.0647
2026.73	73.7733
2024.39	73.7366
2022.05	112.152
2019.71	83.2716
2017.37	89.6325
2015.03	124.783
2012.68	105.533
2010.33	95.8915
2007.99	83.0646
2005.64	79.8301
2003.29	111.706
2000.94	89.3207
1998.59	117.972
1996.23	124.287
1993.88	121.04
1991.52	136.898
1989.17	111.373
1986.81	127.22
1984.45	139.872
1982.09	127.093
1979.73	127.03
1977.37	136.489
1975	136.421
1972.64	123.669
1970.27	120.438
1967.91	148.888
1965.54	126.65
1963.17	123.422
1960.8	139.176
1958.43	120.137
1956.05	148.516
1953.68	126.334
1951.3	113.644
1948.93	138.828
1946.55	167.141
1944.17	116.625
1941.79	132.319
1939.41	147.997
1937.02	144.776
1934.64	135.266
1932.26	150.919
1929.87	138.273
1927.48	131.922
1925.09	144.414
1922.7	160.031
1920.31	163.087
1917.92	144.197
1915.53	147.258
1913.13	159.71
1910.74	178.41
1908.34	184.577
1905.94	187.612
1903.54	181.267
1901.14	199.918
1898.74	146.741
1896.34	165.391
1893.93	187.141
1891.53	202.635
1889.12	174.49
1886.71	208.66
1884.3	152.525
1881.89	211.561
1879.48	152.372
1877.07	205.132
1874.66	223.668
1872.24	208.031
1869.82	198.616
1867.41	198.516
1864.99	241.82
1862.57	192.119
1860.15	213.702
1857.72	213.595
1855.3	219.675
1852.88	188.64
1850.45	188.545
1848.02	244.058
1845.59	213.057
1843.16	222.209
1840.73	240.605
1838.3	243.566
1835.87	194.138
1833.43	252.561
1831	240.119
1828.56	233.844
1826.12	190.672
1823.68	258.199
1821.24	242.707
1818.8	254.867
1816.36	239.393
1813.91	248.475
1811.47	242.217
1809.02	291.126
1806.57	248.098
1804.12	254.095
1801.67	247.847
1799.22	247.722
1796.77	281.221
1794.31	247.471
1791.86	262.614
1789.4	274.69
1786.94	286.753
1784.48	225.627
1782.02	274.273
1779.56	225.399
1777.1	249.64
1774.63	270.813
1772.17	261.552
1769.7	307.016
1767.23	297.745
1764.76	291.521
1762.29	324.76
1759.82	276.057
1757.35	321.398
1754.87	257.594
1752.4	272.608
1749.92	272.47
1747.44	278.383
1744.96	269.169
1742.48	296.237
1740	268.895
1737.51	283.857
1735.03	289.749
1732.54	277.535
1730.06	334.682
1727.57	367.662
1725.08	301.209
1722.59	310.087
1720.1	315.947
1717.6	276.689
1715.11	345.685
1712.61	255.376
1710.12	297.287
1707.62	336.153
1705.12	350.981
1702.62	347.804
1700.11	320.656
1697.61	320.492
1695.11	356.253
1692.6	287.251
1690.09	331.965
1687.58	424.459
1685.07	352.539
1682.56	310.554
1680.05	307.411
1677.54	325.152
1675.02	378.653
1672.51	348.66
1669.99	378.267
1667.47	425.705
1664.95	368.954
1662.43	383.635
1659.9	362.632
1657.38	380.272
1654.85	383.046
1652.33	436.271
1649.8	388.587
1647.27	418.036
1644.74	403.006
1642.21	414.647
1639.68	402.593
1637.14	429.016
1634.61	422.881
1632.07	333.994
1629.53	431.311
1626.99	369.083
1624.45	377.748
1621.91	362.806
1619.36	371.464
1616.82	421.366
1614.27	403.479
1611.72	347.344
1609.18	397.181
1606.63	396.977
1604.07	405.59
1601.52	390.694
1598.97	367.005
1596.41	390.293
1593.86	410.623
1591.3	389.892
1588.74	410.201
1586.18	392.419
1583.62	406.852
1581.05	406.643
1578.49	385.966
1575.92	406.225
1573.36	435.225
1570.79	411.645
1568.22	393.926
1565.65	414.138
1563.07	364.37
1560.5	428.279
1557.92	486.297
1555.35	424.927
1552.77	398.527
1550.19	412.859
1547.61	398.116
1545.03	415.337
1542.45	420.929
1539.86	452.628
1537.28	443.694
1534.69	382.597
1532.1	420.061
1529.51	419.844
1526.92	439.884
1524.33	459.905
1521.73	450.994
1519.14	424.755
1516.54	438.976
1513.94	502.252
1511.34	476.027
1508.74	446.946
1506.14	449.596
1503.54	423.439
1500.93	506.712
1498.33	457.531
1495.72	460.17
1493.11	451.308
1490.5	442.455
1487.89	468.07
1485.28	485.048
1482.66	481.928
1480.05	498.881
1477.43	467.1
1474.81	515.549
1472.19	503.831
1469.57	535.042
1466.95	520.466
1464.33	571.644
1461.7	594.201
1459.08	588.182
1456.45	562.192
1453.82	604.685
1451.19	595.818
1448.56	649.646
1445.92	646.46
1443.29	634.738
1440.65	719.755
1438.02	673.886
1435.38	636.59
1432.74	599.333
1430.1	576.31
1427.45	621.409
1424.81	521.826
1422.16	555.568
1419.52	555.279
1416.87	540.832
1414.22	529.229
1411.57	562.897
1408.92	551.295
1406.26	551.008
1403.61	505.533
1400.95	561.724
1398.29	521.933
1395.63	532.94
1392.97	527.025
1390.31	591.538
1387.65	582.783
1384.98	590.92
1382.32	596.236
1379.65	609.979
1376.98	634.946
1374.31	592.494
1371.64	631.476
1368.96	645.171
1366.29	642.03
1363.61	638.892
1360.94	604.95
1358.26	621.428
1355.58	590.328
1352.9	601.204
1350.21	648.401
1347.53	656.442
1344.84	600.26
1342.15	602.736
1339.47	647.043
1336.78	652.279
1334.08	693.728
1331.39	607.042
1328.7	628.989
1326	662.039
1323.3	608.867
1320.61	672.459
1317.91	672.106
1315.2	646.771
1312.5	635.333
1309.8	632.227
1307.09	612.494
1304.38	664.803
1301.68	736.436
1298.97	702.843
1296.25	724.599
1293.54	682.755
1290.83	649.243
1288.11	629.572
1285.39	634.761
1282.68	579.259
1279.96	570.683
1277.23	526.295
1274.51	492.97
1271.79	506.473
1269.06	528.215
1266.33	467.444
1263.61	420.478
1260.88	409.269
1258.14	461.214
1255.41	460.971
1252.68	457.986
1249.94	435.816
1247.2	438.326
1244.47	443.57
1241.73	385.867
1238.98	423.956
1236.24	420.998
1233.5	379.791
1230.75	406.899
1228	428.519
1225.25	357.365
1222.5	381.715
1219.75	376.063
1217	356.799
1214.25	386.554
1211.49	370.025
1208.73	364.39
1205.97	350.608
1203.21	325.974
1200.45	342.092
1197.69	363.619
1194.92	344.441
1192.16	360.523
1189.39	346.786
1186.62	341.186
1183.85	343.712
1181.08	321.89
1178.3	321.719
1175.53	353.973
1172.75	340.282
1169.97	286.117
1167.19	334.525
1164.41	385.578
1161.63	336.865
1158.84	374.395
1156.06	325.739
1153.27	357.853
1150.48	357.663
1147.69	303.717
1144.9	359.969
1142.11	319.504
1139.32	348.852
1136.52	359.395
1133.72	402.093
1130.92	393.842
1128.12	468.609
1125.32	404.128
1122.52	318.315
1119.71	355.574
1116.91	352.713
1114.1	347.183
1111.29	344.329
1108.48	354.817
1105.67	341.295
1102.85	341.113
1100.04	348.922
1097.22	322.115
1094.4	329.925
1091.58	351.023
1088.76	326.914
1085.94	313.458
1083.11	331.875
1080.29	329.044
1077.46	336.825
1074.63	336.645
1071.8	309.971
1068.97	307.158
1066.14	341.398
1063.3	380.891
1060.46	338.389
1057.63	317.07
1054.79	250.879
1051.95	285.057
1049.1	253.248
1046.26	305.844
1043.41	303.045
1040.57	231.771
1037.72	279.029
1034.87	263.094
1032.02	244.546
1029.16	260.184
1026.31	239.03
1023.45	273.031
1020.59	246.646
1017.73	280.605
1014.87	228.033
1012.01	267.206
1009.15	246.116
1006.28	277.386
1003.41	269.391
1000.55	274.474
997.676	242.975
994.804	237.621
991.931	240.103
989.056	253.016
986.18	224.203
983.302	216.265
980.422	226.566
977.541	218.635
974.659	270.546
971.775	241.8
968.889	252.064
966.002	220.762
963.113	244.005
960.223	264.628
957.331	230.777
954.437	225.469
951.542	246.069
948.646	209.693
945.748	256.153
942.848	219.81
939.947	235.199
937.044	247.988
934.139	260.763
931.233	260.623
928.326	270.798
925.417	265.496
922.506	247.319
919.594	231.736
916.68	265.065
913.765	277.782
910.848	290.485
907.929	277.482
905.009	261.924
902.087	264.349
899.164	271.901
896.239	264.062
893.312	286.98
890.384	271.459
887.454	314.824
884.523	271.165
881.59	268.461
878.656	309.201
875.72	301.371
872.782	293.55
869.843	293.391
866.902	316.18
863.96	333.847
861.016	287.819
858.07	343.667
855.123	343.48
852.174	312.779
849.224	317.692
846.272	325.139
843.318	309.73
840.363	304.486
837.406	301.785
834.447	296.551
831.487	255.858
828.525	301.292
825.562	316.311
822.597	283.26
819.631	298.272
816.662	277.899
813.693	262.597
810.721	239.742
807.748	290.055
804.774	274.772
801.797	254.466
798.819	279.508
795.84	234.055
792.859	251.534
789.876	248.883
786.892	248.747
783.906	226.01
780.918	253.495
777.929	270.916
774.938	240.682
771.945	263.102
768.951	252.941
765.955	282.839
762.957	282.684
759.958	255.026
756.957	312.361
753.955	264.737
750.951	254.607
747.945	269.437
744.938	249.342
741.929	259.173
738.918	276.466
735.906	298.718
732.892	238.843
729.876	218.82
726.859	246.037
723.84	235.967
720.819	245.767
717.797	280.368
714.773	309.971
711.748	299.887
708.72	287.337
705.691	279.752
702.661	267.227
699.629	301.701
696.595	254.575
693.559	335.953
690.522	286.391
687.483	276.363
684.442	246.617
681.4	285.918
678.356	298.078
675.311	292.989
672.263	302.671
669.214	263.154
666.164	280.215
663.111	307.084
660.057	272.54
657.001	282.206
653.944	277.145
650.885	284.346
647.824	291.538
644.762	301.172
641.698	283.875
638.632	308.177
635.564	300.673
632.495	368.915
629.424	290.573
626.351	305.055
623.277	314.643
620.201	348.598
617.123	306.986
614.044	309.251
610.963	299.345
607.88	304.044
604.795	325.755
601.709	330.434
598.621	325.394
595.531	296.09
592.44	315.331
589.347	341.823
586.252	329.519
583.155	334.18
580.057	290.43
576.957	343.485
573.855	307.031
570.752	302.028
567.647	354.987
564.54	349.963
561.431	347.357
558.321	325.466
555.209	298.78
552.095	320.288
548.979	327.33
545.862	339.176
542.743	329.37
539.622	317.173
536.5	321.8
533.376	331.221
530.25	321.441
527.122	354.827
523.992	311.499
520.861	359.222
517.728	344.661
514.594	327.723
511.457	363.403
508.319	308.242
505.179	360.61
502.037	348.474
498.894	353.051
495.749	317.092
492.602	309.766
489.453	350.078
486.303	330.842
483.15	382.991
479.996	373.267
476.841	339.792
473.683	356.226
470.524	363.147
467.363	379.549
464.2	369.854
461.035	343.582
457.869	402.595
454.701	409.47
451.531	331.177
448.359	383.005
445.186	392.242
442.011	368.406
438.834	380.001
435.655	401.019
432.474	426.728
429.292	388.788
426.108	395.634
422.922	355.4
419.734	392.838
416.544	347.949
413.353	420.593
410.16	396.874
406.965	431.856
403.768	440.997
400.57	473.57
397.37	414.727
394.167	409.81
390.964	449.367
387.758	465.489
384.55	441.848
381.341	453.282
378.13	453.027
374.917	424.766
371.702	436.189
368.486	454.593
365.267	468.317
362.047	412.166
358.825	409.606
355.601	481.481
352.376	462.612
349.148	485.585
345.919	459.768
342.688	450.226
339.455	449.972
336.22	442.763
332.984	488.85
329.745	463.103
326.505	472.098
323.263	513.463
320.019	501.615
316.773	452.816
313.526	480.267
310.276	491.534
307.025	505.094
303.772	484.063
300.517	490.7
297.26	490.422
294.001	476.337
290.741	457.669
287.479	507.977
284.214	473.231
280.948	507.402
277.681	523.176
274.411	470.133
271.139	543.211
267.866	563.52
264.59	519.701
261.313	551.439
258.034	537.405
254.753	589.667
251.471	545.932
248.186	534.207
244.9	602.353
241.611	549.562
238.321	606.226
235.029	569.437
231.735	621.472
228.439	623.393
225.141	611.669
221.842	606.776
218.54	608.701
215.237	642.404
211.932	678.337
208.624	657.544
205.315	657.169
202.005	647.735
198.692	602.096
195.377	644.735
192.06	646.628
188.742	646.259
185.422	618.79
182.099	652.292
178.775	654.176
175.449	638.02
172.121	626.39
168.791	680.078
165.46	666.185
162.126	665.804
158.79	685.656
155.453	698.745
152.113	745.5
148.772	709.166
145.429	735.675
142.084	744.22
138.737	768.438
135.388	779.193
132.037	796.649
128.684	861.051
125.329	907.496
121.973	951.655
118.614	897.525
115.253	988.497
111.891	970.089
108.527	958.388
105.16	933.335
101.792	877.143
100.669	821.329