File: Spicy-Raman/model_train_and_validate/Raman_Data/polyethylene/20191004 Set3Sample3_9 5_.txt
3201.26	42.1129
3199.48	92.6203
3197.7	33.6648
3195.92	33.6496
3194.13	29.43
3192.35	63.0358
3190.56	16.8019
3188.78	50.3829
3186.99	4.19667
3185.2	25.1686
3183.42	0
3181.63	46.1006
3179.84	20.9453
3178.05	20.9358
3176.25	54.4084
3174.46	25.1002
3172.67	37.6332
3170.87	37.6161
3169.08	54.3097
3167.28	54.285
3165.49	20.8694
3163.69	54.2357
3161.89	25.0205
3160.09	45.85
3158.29	45.8292
3156.49	45.8084
3154.69	54.1126
3152.89	16.6424
3151.08	66.5395
3149.28	12.4705
3147.48	33.2395
3145.67	20.7652
3143.86	16.6046
3142.06	33.1941
3140.25	24.8843
3138.44	70.4734
3136.63	29.0052
3134.82	45.5589
3133.01	49.678
3131.19	41.3795
3129.38	33.0885
3127.57	24.8051
3125.75	37.1906
3123.94	33.0433
3122.12	45.4138
3120.3	0
3118.49	24.7486
3116.67	41.2288
3114.85	37.089
3113.03	45.3104
3111.21	8.23449
3109.38	16.4615
3107.56	28.7944
3105.74	24.6697
3103.91	4.10973
3102.09	41.0786
3100.26	36.9538
3098.43	36.937
3096.61	49.2268
3094.78	49.2043
3092.95	28.6894
3091.12	24.5797
3089.28	40.9474
3087.45	24.5572
3085.62	81.82
3083.79	32.713
3081.95	32.6981
3080.12	36.7685
3078.28	28.5847
3076.44	24.4899
3074.6	44.8777
3072.77	40.7792
3070.93	44.8366
3069.08	28.5193
3067.24	32.5786
3065.4	61.0569
3063.56	36.6174
3061.71	28.4671
3059.87	20.3244
3058.02	32.5041
3056.18	28.428
3054.33	8.11857
3052.48	24.3446
3050.63	8.11113
3048.78	28.3759
3046.93	20.2592
3045.08	24.2999
3043.23	32.3851
3041.37	48.5553
3039.52	32.3554
3037.67	28.298
3035.81	40.4071
3033.95	8.07771
3032.1	32.296
3030.24	24.2109
3028.38	44.3662
3026.52	0
3024.66	28.2071
3022.8	8.05548
3020.93	76.4919
3019.07	4.02404
3017.2	48.2663
3015.34	44.2238
3013.47	44.2034
3011.61	20.0832
3009.74	44.1628
3007.87	40.1295
3006	32.0889
3004.13	60.1389
3002.26	48.089
3000.39	32.0446
2998.51	12.0112
2996.64	32.0151
2994.77	48.0005
2992.89	63.9712
2991.01	51.9527
2989.14	35.9507
2987.26	27.9488
2985.38	11.9725
2983.5	47.868
2981.62	59.8075
2979.74	11.956
2977.85	19.9174
2975.97	55.7431
2974.09	39.7982
2972.2	99.4495
2970.32	51.6899
2968.43	51.6661
2966.54	75.4771
2964.65	43.6771
2962.76	63.501
2960.87	75.3726
2958.98	55.5121
2957.09	47.5598
2955.2	71.3068
2953.3	79.1932
2951.41	91.0301
2949.51	67.252
2947.62	67.2209
2945.72	90.9039
2943.82	82.9609
2941.92	110.563
2940.02	102.619
2938.12	67.0657
2936.22	106.467
2934.32	98.5348
2932.41	98.4892
2930.51	141.759
2928.6	106.27
2926.7	106.221
2924.79	121.901
2922.88	70.7483
2920.97	121.788
2919.06	106.024
2917.15	102.05
2915.24	78.4637
2913.33	109.798
2911.42	74.4714
2909.5	117.532
2907.59	109.646
2905.67	74.3679
2903.75	125.193
2901.84	129.046
2899.92	125.077
2898	93.7642
2896.08	132.771
2894.16	81.9676
2892.24	132.648
2890.31	128.687
2888.39	175.4
2886.46	179.215
2884.54	175.238
2882.61	225.757
2880.68	159.513
2878.76	213.881
2876.83	151.59
2874.9	163.175
2872.97	128.15
2871.03	131.972
2869.1	120.271
2867.17	151.238
2865.23	120.159
2863.3	244.081
2861.36	104.557
2859.42	150.957
2857.48	139.28
2855.55	189.488
2853.61	193.265
2851.66	224.083
2849.72	196.947
2847.78	169.836
2845.84	169.756
2843.89	181.246
2841.95	104.072
2840	111.729
2838.05	73.1674
2836.1	76.9824
2834.16	57.7099
2832.21	73.0651
2830.25	42.2811
2828.3	34.5775
2826.35	42.2417
2824.4	84.4439
2822.44	26.856
2820.49	69.026
2818.53	22.9979
2816.57	34.4808
2814.61	34.4647
2812.66	72.7248
2810.7	26.7808
2808.73	61.1847
2806.77	53.5116
2804.81	30.5638
2802.85	42.0055
2800.88	41.9859
2798.92	19.0756
2796.95	30.5067
2794.98	45.7386
2793.01	53.3367
2791.04	53.3118
2789.07	72.3178
2787.1	22.8265
2785.13	45.6317
2783.16	22.8052
2781.18	34.1917
2779.21	26.5811
2777.23	34.1597
2775.26	79.6686
2773.28	11.3759
2771.3	26.5313
2769.32	26.5189
2767.34	64.3728
2765.36	52.9881
2763.38	34.0478
2761.39	34.0318
2759.41	34.0159
2757.43	60.4443
2755.44	7.55199
2753.45	67.936
2751.46	52.8143
2749.48	67.8723
2747.49	75.3782
2745.5	41.4386
2743.5	18.8269
2741.51	41.3996
2739.52	67.713
2737.52	67.6812
2735.53	90.1992
2733.53	41.3219
2731.54	67.5858
2729.54	71.3071
2727.54	52.5174
2725.54	44.9937
2723.54	59.9634
2721.54	71.173
2719.53	37.4419
2717.53	59.8788
2715.52	67.3319
2713.52	29.9112
2711.51	48.5828
2709.5	59.7661
2707.5	44.8035
2705.49	29.8549
2703.48	29.8409
2701.47	59.6536
2699.45	52.1723
2697.44	52.1477
2695.43	52.1231
2693.41	48.3772
2691.39	44.6348
2689.38	59.485
2687.36	55.7409
2685.34	55.7146
2683.32	22.2753
2681.3	40.8188
2679.28	51.9267
2677.26	51.9022
2675.23	81.5221
2673.21	44.4456
2671.18	11.1062
2669.16	25.9021
2667.13	29.5884
2665.1	59.1489
2663.07	29.5605
2661.04	55.3997
2659.01	40.6072
2656.98	66.4168
2654.94	25.8165
2652.91	33.177
2650.87	44.2151
2648.84	44.1941
2646.8	25.7677
2644.76	44.1523
2642.72	36.7762
2640.68	40.4346
2638.64	44.0896
2636.6	40.3964
2634.56	44.0479
2632.51	29.3513
2630.47	7.33436
2628.42	29.3235
2626.38	32.9733
2624.33	62.2534
2622.28	47.583
2620.23	32.9265
2618.18	54.8514
2616.13	47.5153
2614.07	32.8796
2612.02	32.864
2609.97	25.5488
2607.91	21.8886
2605.85	54.6954
2603.8	47.3802
2601.74	65.5722
2599.68	65.541
2597.62	40.0338
2595.56	47.2902
2593.49	29.0878
2591.43	36.3425
2589.37	47.2228
2587.3	54.462
2585.24	36.2907
2583.17	58.0375
2581.1	47.133
2579.03	25.3673
2576.96	47.0882
2574.89	43.4453
2572.82	57.8996
2570.74	47.021
2568.67	43.3833
2566.59	28.9084
2564.52	25.2828
2562.44	57.7618
2560.36	64.9511
2558.28	28.8534
2556.2	90.1239
2554.12	43.2388
2552.04	39.6167
2549.96	17.999
2547.87	64.7655
2545.79	53.9455
2543.7	32.3519
2541.61	43.1152
2539.53	46.6859
2537.44	75.3797
2535.35	53.8169
2533.26	64.5495
2531.16	53.7655
2529.07	64.4878
2526.98	64.457
2524.88	35.7923
2522.79	35.7752
2520.69	50.0614
2518.59	75.0562
2516.49	10.7172
2514.39	24.9948
2512.29	53.5347
2510.19	53.5091
2508.09	10.6967
2505.98	32.0747
2503.88	32.0594
2501.77	60.5276
2499.66	35.5874
2497.55	39.1274
2495.45	49.7747
2493.33	31.9827
2491.22	31.9674
2489.11	31.9521
2487	39.0338
2484.88	49.6556
2482.77	53.1769
2480.65	46.0645
2478.54	28.3338
2476.42	21.2402
2474.3	63.6899
2472.18	63.6594
2470.06	42.4192
2467.93	81.2645
2465.81	52.9731
2463.69	38.8283
2461.56	35.2815
2459.43	38.791
2457.31	42.2972
2455.18	63.4152
2453.05	56.342
2450.92	80.9527
2448.79	77.3958
2446.65	45.7119
2444.52	56.2338
2442.39	24.5904
2440.25	31.6011
2438.11	49.1336
2435.98	63.1413
2433.84	56.0986
2431.7	38.5492
2429.56	94.5753
2427.41	49.0154
2425.27	41.993
2423.13	69.9546
2420.98	45.4486
2418.84	41.9323
2416.69	52.3902
2414.54	27.9279
2412.39	55.829
2410.24	52.3144
2408.09	62.747
2405.94	48.7797
2403.79	62.6865
2401.63	24.3663
2399.48	73.0637
2397.32	66.0733
2395.16	52.138
2393	41.6903
2390.84	65.9777
2388.68	45.1208
2386.52	65.914
2384.36	62.4146
2382.2	69.3161
2380.03	79.675
2377.87	79.6365
2375.7	27.6862
2373.53	55.3457
2371.36	79.521
2369.19	41.4691
2367.02	37.995
2364.85	72.5008
2362.68	48.3105
2360.5	65.5325
2358.33	55.1585
2356.15	62.0233
2353.97	86.1017
2351.8	72.2904
2349.62	34.4073
2347.44	37.8297
2345.25	51.561
2343.07	44.6645
2340.89	82.4176
2338.7	61.7832
2336.52	44.5996
2334.33	58.2942
2332.14	41.1289
2329.95	78.7922
2327.76	58.2094
2325.57	68.4484
2323.38	71.836
2321.19	64.9629
2318.99	88.8534
2316.8	54.6525
2314.6	44.3836
2312.4	75.0741
2310.2	61.3944
2308.01	51.1372
2305.8	64.7423
2303.6	27.2466
2301.4	88.5085
2299.2	51.0378
2296.99	71.4181
2294.79	74.7826
2292.58	54.3609
2290.37	67.918
2288.16	57.7022
2285.95	71.2445
2283.74	57.646
2281.53	61.0072
2279.31	77.9157
2277.1	47.4038
2274.88	64.3024
2272.67	33.8269
2270.45	33.8104
2268.23	43.9321
2266.01	37.1552
2263.79	60.7697
2261.57	43.8678
2259.34	53.9648
2257.12	77.5366
2254.89	43.8036
2252.67	60.6216
2250.44	70.6906
2248.21	53.8332
2245.98	36.9923
2243.75	47.0581
2241.52	47.0351
2239.28	43.6541
2237.05	36.92
2234.81	40.2567
2232.58	70.4147
2230.34	33.5144
2228.1	73.6957
2225.86	46.8743
2223.62	46.8514
2221.38	86.9671
2219.14	50.1488
2216.89	70.1739
2214.65	46.7597
2212.4	80.1202
2210.15	66.7342
2207.9	50.0261
2205.66	93.3363
2203.4	66.6361
2201.15	43.2922
2198.9	76.5564
2196.65	73.192
2194.39	63.1802
2192.13	66.4729
2189.88	63.1183
2187.62	69.7281
2185.36	79.6501
2183.1	92.8795
2180.84	66.3099
2178.57	92.7883
2176.31	72.8693
2174.05	76.1441
2171.78	102.579
2169.51	56.2251
2167.24	62.809
2164.97	72.6904
2162.7	59.4447
2160.43	56.1146
2158.16	59.3863
2155.88	62.6547
2153.61	52.7359
2151.33	69.1818
2149.06	72.4405
2146.78	85.5693
2144.5	75.6587
2142.22	39.4547
2139.94	78.8704
2137.65	39.4158
2135.37	78.7927
2133.08	98.4424
2130.8	62.3161
2128.51	65.5636
2126.22	75.3609
2123.93	78.5987
2121.64	65.4666
2119.35	78.5212
2117.05	55.5917
2114.76	81.7122
2112.47	75.1381
2110.17	75.101
2107.87	81.5912
2105.57	104.385
2103.27	71.7294
2100.97	74.9527
2098.67	74.9157
2096.37	71.6231
2094.06	100.874
2091.76	78.057
2089.45	61.7646
2087.14	84.4782
2084.83	97.4266
2082.52	94.1325
2080.21	51.9094
2077.9	84.3111
2075.58	71.3048
2073.27	87.4672
2070.95	55.0446
2068.64	64.7263
2066.32	106.746
2064	74.3615
2061.68	90.4822
2059.36	71.0579
2057.03	116.219
2054.71	87.121
2052.38	64.5021
2050.06	83.8111
2047.73	90.2133
2045.4	64.4061
2043.07	96.5612
2040.74	64.3422
2038.41	80.3878
2036.08	99.6314
2033.74	118.856
2031.41	80.2681
2029.07	115.529
2026.73	70.5657
2024.39	86.5604
2022.05	115.356
2019.71	96.0826
2017.37	89.6325
2015.03	108.785
2012.68	89.5433
2010.33	95.8915
2007.99	124.597
2005.64	121.342
2003.29	121.281
2000.94	86.1307
1998.59	117.972
1996.23	152.969
1993.88	105.114
1991.52	76.4081
1989.17	124.101
1986.81	130.4
1984.45	117.62
1982.09	111.206
1979.73	107.975
1977.37	117.444
1975	98.3498
1972.64	107.814
1970.27	155.301
1967.91	133.049
1965.54	107.652
1963.17	158.233
1960.8	120.197
1958.43	139.106
1956.05	94.7977
1953.68	120.017
1951.3	145.211
1948.93	126.207
1946.55	132.452
1944.17	110.321
1941.79	148.071
1939.41	151.146
1937.02	125.892
1934.64	144.703
1932.26	141.487
1929.87	138.273
1927.48	147.627
1925.09	150.693
1922.7	163.169
1920.31	169.359
1917.92	147.332
1915.53	181.722
1913.13	203.552
1910.74	156.5
1908.34	172.064
1905.94	137.582
1903.54	165.641
1901.14	178.052
1898.74	149.864
1896.34	168.512
1893.93	180.903
1891.53	168.343
1889.12	180.722
1886.71	177.516
1884.3	183.653
1881.89	189.783
1879.48	177.249
1877.07	198.916
1874.66	186.39
1872.24	198.716
1869.82	192.41
1867.41	198.516
1864.99	195.316
1862.57	176.626
1860.15	213.702
1857.72	198.117
1855.3	188.735
1852.88	173.178
1850.45	228.727
1848.02	182.271
1845.59	228.496
1843.16	194.432
1840.73	197.419
1838.3	188.07
1835.87	191.057
1833.43	206.361
1831	221.649
1828.56	233.844
1826.12	218.35
1823.68	221.313
1821.24	218.129
1818.8	193.454
1816.36	242.462
1813.91	211.664
1811.47	214.623
1809.02	251.288
1806.57	199.091
1804.12	257.157
1801.67	226.428
1799.22	244.664
1796.77	253.71
1794.31	271.913
1791.86	274.829
1789.4	268.586
1786.94	274.551
1784.48	280.51
1782.02	280.368
1779.56	246.72
1777.1	246.595
1774.63	261.685
1772.17	215.932
1769.7	258.38
1767.23	255.21
1764.76	294.558
1762.29	282.268
1759.82	263.923
1757.35	266.821
1754.87	260.624
1752.4	281.695
1749.92	257.332
1747.44	266.279
1744.96	260.095
1742.48	278.1
1740	287.023
1737.51	289.897
1735.03	292.768
1732.54	256.418
1730.06	286.44
1727.57	292.321
1725.08	325.305
1722.59	289.013
1720.1	273.821
1717.6	270.674
1715.11	306.608
1712.61	282.416
1710.12	315.304
1707.62	279.127
1705.12	320.983
1702.62	320.819
1700.11	341.633
1697.61	329.478
1695.11	314.341
1692.6	335.126
1690.09	293.086
1687.58	304.893
1685.07	325.651
1682.56	325.484
1680.05	349.195
1677.54	307.254
1675.02	348.838
1672.51	345.68
1669.99	369.331
1667.47	360.212
1664.95	383.831
1662.43	359.843
1659.9	368.577
1657.38	362.446
1654.85	365.23
1652.33	359.108
1649.8	391.554
1647.27	403.212
1644.74	391.153
1642.21	396.876
1639.68	378.911
1637.14	343.212
1634.61	399.224
1632.07	419.709
1629.53	378.135
1626.99	398.61
1624.45	368.894
1621.91	374.604
1619.36	362.62
1616.82	341.807
1614.27	379.918
1611.72	412.103
1609.18	373.644
1606.63	358.749
1604.07	358.565
1601.52	373.069
1598.97	355.261
1596.41	355.078
1593.86	375.427
1591.3	372.302
1588.74	407.271
1586.18	360.206
1583.62	348.312
1581.05	377.388
1578.49	365.498
1575.92	403.302
1573.36	397.253
1570.79	405.806
1568.22	350.156
1565.65	387.89
1563.07	416.84
1560.5	343.788
1557.92	349.435
1555.35	395.822
1552.77	392.709
1550.19	401.229
1547.61	424.27
1545.03	418.242
1542.45	391.899
1539.86	406.205
1537.28	408.895
1534.69	463.755
1532.1	446.133
1529.51	451.694
1526.92	434.097
1524.33	454.12
1521.73	416.302
1519.14	407.418
1516.54	407.208
1513.94	432.976
1511.34	458.717
1508.74	452.713
1506.14	438.068
1503.54	452.244
1500.93	452.01
1498.33	466.164
1495.72	442.914
1493.11	457.057
1490.5	499.917
1487.89	479.557
1485.28	447.737
1482.66	421.687
1480.05	475.944
1477.43	461.369
1474.81	504.092
1472.19	458.028
1469.57	586.544
1466.95	523.326
1464.33	531.629
1461.7	571.347
1459.08	576.761
1456.45	622.122
1453.82	633.208
1451.19	584.415
1448.56	612.604
1445.92	655.003
1443.29	646.124
1440.65	711.22
1438.02	693.79
1435.38	645.116
1432.74	562.408
1430.1	576.31
1427.45	533.447
1424.81	479.285
1422.16	566.906
1419.52	526.948
1416.87	495.526
1414.22	537.72
1411.57	520.468
1408.92	537.159
1406.26	483.191
1403.61	477.291
1400.95	544.788
1398.29	496.542
1395.63	499.103
1392.97	566.482
1390.31	529.567
1387.65	537.737
1384.98	526.2
1382.32	556.862
1379.65	598.736
1376.98	604.042
1374.31	598.11
1371.64	609.023
1368.96	546.993
1366.29	594.368
1363.61	602.464
1360.94	537.733
1358.26	557.046
1355.58	587.53
1352.9	576.037
1350.21	667.965
1347.53	617.334
1344.84	577.924
1342.15	613.897
1339.47	580.108
1336.78	590.954
1334.08	587.858
1331.39	637.672
1328.7	598.374
1326	570.243
1323.3	558.823
1320.61	589.096
1317.91	574.901
1315.2	555.168
1312.5	563.199
1309.8	524.083
1307.09	598.637
1304.38	620.482
1301.68	603.545
1298.97	677.939
1296.25	666.52
1293.54	630.235
1290.83	574.649
1288.11	568.824
1285.39	585.084
1282.68	557.192
1279.96	476.948
1277.23	523.54
1274.51	446.152
1271.79	467.937
1269.06	442.93
1266.33	393.203
1263.61	395.744
1260.88	453.218
1258.14	395.327
1255.41	430.789
1252.68	381.198
1249.94	383.737
1247.2	424.628
1244.47	388.809
1241.73	355.764
1238.98	380.193
1236.24	407.329
1233.5	428.973
1230.75	371.398
1228	343.907
1225.25	392.829
1222.5	381.715
1219.75	384.238
1217	356.799
1214.25	391.999
1211.49	337.376
1208.73	310.004
1205.97	312.558
1203.21	323.258
1200.45	350.237
1197.69	382.614
1194.92	341.729
1192.16	311.731
1189.39	346.786
1186.62	362.849
1183.85	286.877
1181.08	327.3
1178.3	386.603
1175.53	310.74
1172.75	345.683
1169.97	342.801
1167.19	299.454
1164.41	339.74
1161.63	309.916
1158.84	320.525
1156.06	358.044
1153.27	295.969
1150.48	330.771
1147.69	325.22
1144.9	316.988
1142.11	332.928
1139.32	295.183
1136.52	335.256
1133.72	332.397
1130.92	391.162
1128.12	393.632
1125.32	398.775
1122.52	315.64
1119.71	259.329
1116.91	325.992
1114.1	285.759
1111.29	293.614
1108.48	296.125
1105.67	269.303
1102.85	327.789
1100.04	348.922
1097.22	311.466
1094.4	279.372
1091.58	287.2
1088.76	276.415
1085.94	265.642
1083.11	273.465
1080.29	329.044
1077.46	281.129
1074.63	288.931
1071.8	320.569
1068.97	272.735
1066.14	317.579
1063.3	375.601
1060.46	333.101
1057.63	269.509
1054.79	240.316
1051.95	240.187
1049.1	261.162
1046.26	242.566
1043.41	242.436
1040.57	231.771
1037.72	257.971
1034.87	194.69
1032.02	223.51
1029.16	236.531
1026.31	244.284
1023.45	217.9
1020.59	233.526
1017.73	217.666
1014.87	243.76
1012.01	241.009
1009.15	196.369
1006.28	193.647
1003.41	222.313
1000.55	211.737
997.676	229.911
994.804	203.676
991.931	200.956
989.056	234.757
986.18	218.989
983.302	208.449
980.422	203.128
977.541	221.238
974.659	197.706
971.775	200.2
968.889	226.078
966.002	194.79
963.113	186.897
960.223	194.58
957.331	228.184
954.437	189.187
951.542	246.069
948.646	201.926
945.748	194.055
942.848	183.606
939.947	196.43
937.044	204.074
934.139	234.945
931.233	196.112
928.326	196.006
925.417	211.366
922.506	216.404
919.594	216.287
916.68	259.919
913.765	208.337
910.848	267.349
907.929	254.358
905.009	231.109
902.087	266.915
899.164	228.294
896.239	243.553
893.312	276.731
890.384	289.385
887.454	245.716
884.523	237.909
881.59	237.779
878.656	217.207
875.72	247.737
872.782	255.261
869.843	288.288
866.902	249.884
863.96	282.878
861.016	252.16
858.07	287.662
855.123	315.493
852.174	335.665
849.224	294.818
846.272	289.577
843.318	271.648
840.363	256.276
837.406	248.529
834.447	268.67
831.487	273.591
828.525	263.314
825.562	253.049
822.597	235.207
819.631	207.274
816.662	250.109
813.693	227.248
810.721	219.553
807.748	227
804.774	199.147
801.797	246.908
798.819	214.038
795.84	234.055
792.859	228.896
789.876	218.715
786.892	228.646
783.906	213.454
780.918	218.357
777.929	243.323
774.938	215.611
771.945	210.482
768.951	242.924
765.955	242.791
762.957	242.658
759.958	252.526
756.957	232.397
753.955	252.249
750.951	224.654
747.945	239.499
744.938	234.381
741.929	226.777
738.918	221.671
735.906	226.528
732.892	226.404
729.876	261.092
726.859	238.581
723.84	240.934
720.819	248.25
717.797	253.076
714.773	260.376
711.748	247.841
708.72	240.273
705.691	250.044
702.661	222.689
699.629	272.026
696.595	237.274
693.559	229.733
690.522	224.668
687.483	266.493
684.442	241.684
681.4	268.664
678.356	238.955
675.311	256.058
672.263	246.074
669.214	258.235
666.164	233.513
663.111	262.864
660.057	235.71
657.001	245.396
653.944	277.145
650.885	230.418
647.824	254.79
644.762	286.48
641.698	239.825
638.632	232.355
635.564	293.339
632.495	285.848
629.424	271.039
626.351	266.008
623.277	282.935
620.201	292.529
617.123	253.385
614.044	238.635
610.963	260.406
607.88	267.559
604.795	272.273
601.709	281.841
598.621	245.26
595.531	269.394
592.44	293.501
589.347	283.641
586.252	281.061
583.155	261.532
580.057	278.329
576.957	273.336
573.855	280.437
570.752	297.195
567.647	299.445
564.54	294.452
561.431	301.525
558.321	277.249
555.209	274.685
552.095	281.757
548.979	312.889
545.862	317.526
542.743	286.096
539.622	278.728
536.5	290.58
533.376	264.017
530.25	323.84
527.122	302.083
523.992	277.953
520.861	294.562
517.728	275.25
514.594	296.626
511.457	277.334
508.319	274.79
505.179	298.518
502.037	303.125
498.894	286.257
495.749	312.323
492.602	300.235
489.453	314.356
486.303	292.759
483.15	335.414
479.996	287.677
476.841	320.783
473.683	296.855
470.524	294.315
467.363	327.361
464.2	317.695
461.035	305.669
457.869	310.235
454.701	319.529
451.531	331.177
448.359	321.535
445.186	323.718
442.011	349.514
438.834	330.436
435.655	323.174
432.474	367.787
429.292	322.811
426.108	332.05
422.922	284.791
419.734	352.849
416.544	315.034
413.353	371.25
410.16	385.132
406.965	333.28
403.768	384.699
400.57	405.583
397.37	433.472
394.167	358.291
390.964	411.92
387.758	367.245
384.55	409.119
381.341	371.505
378.13	415.664
374.917	359.417
371.702	436.189
368.486	407.968
365.267	426.378
362.047	393.537
358.825	390.988
355.601	418.679
352.376	409.145
349.148	390.327
345.919	385.462
342.688	406.132
339.455	419.819
336.22	398.719
332.984	391.543
329.745	372.798
326.505	411.929
323.263	356.186
320.019	402.217
316.773	441.264
313.526	438.706
310.276	449.996
307.025	410.533
303.772	410.301
300.517	412.372
297.26	402.929
294.001	448.724
290.741	441.57
287.479	462.007
284.214	420.394
280.948	436.228
277.681	463.516
274.411	470.133
271.139	446.946
267.866	471.89
264.59	434.992
261.313	459.914
258.034	455.079
254.753	491.389
251.471	495.679
248.186	518.226
244.9	517.932
241.611	476.591
238.321	483.157
235.029	505.66
231.735	484.884
228.439	518.736
225.141	545.727
221.842	497.692
218.54	554.191
215.237	508.475
211.932	544.485
208.624	560.046
205.315	589.186
202.005	536.76
198.692	565.879
195.377	554.246
192.06	572.017
188.742	528.757
185.422	528.455
182.099	582.323
178.775	595.525
175.449	552.35
172.121	594.845
168.791	594.505
165.46	585.163
162.126	614.07
158.79	647.439
155.453	658.303
152.113	619.753
148.772	617.154
145.429	612.315
142.084	708.354
138.737	647.459
135.388	680.674
132.037	720.564
128.684	731.334
125.329	757.737
121.973	839.958
118.614	790.358
115.253	836.763
111.891	811.752
108.527	806.829
105.16	781.863
101.792	692.364
100.669	705.586