File: Spicy-Raman/model_train_and_validate/Raman_Data/polyethylene/Set5Sample2_1 - 5_.txt
3201.19	21.056
3199.41	16.8397
3197.63	8.41605
3195.84	33.649
3194.06	12.6126
3192.28	29.4162
3190.49	8.40081
3188.7	29.3895
3186.92	20.983
3185.13	8.38938
3183.34	12.5784
3181.55	8.38177
3179.76	46.0788
3177.97	20.9354
3176.18	16.7407
3174.39	16.7331
3172.59	20.9069
3170.8	20.8974
3169	8.35518
3167.21	20.8785
3165.41	0
3163.61	41.719
3161.82	20.85
3160.02	37.513
3158.22	20.8311
3156.42	20.8216
3154.61	29.137
3152.81	8.32107
3151.01	29.1105
3149.2	20.7838
3147.4	8.30972
3145.59	16.6119
3143.79	53.964
3141.98	8.29838
3140.17	12.4419
3138.36	-8.29083
3136.55	29.0047
3134.74	4.14164
3132.93	4.13975
3131.12	20.6893
3129.31	4.13598
3127.49	12.4023
3125.68	-4.13222
3123.86	33.0427
3122.05	-4.12845
3120.23	28.886
3118.41	0
3116.59	24.7368
3114.77	4.12093
3112.95	37.0714
3111.13	20.5858
3109.31	32.9223
3107.48	45.2475
3105.66	20.5577
3103.84	28.7676
3102.01	41.0778
3100.18	16.4236
3098.36	8.20806
3096.53	8.20431
3094.7	36.9025
3092.87	40.9841
3091.04	0
3089.21	24.568
3087.38	20.464
3085.54	16.3637
3083.71	4.08905
3081.87	20.4359
3080.04	-12.2559
3078.2	4.08345
3076.37	36.7342
3074.53	32.6377
3072.69	28.5449
3070.85	28.5318
3069.01	20.3706
3067.17	-4.07225
3065.32	-4.07038
3063.48	4.06852
3061.64	20.3333
3059.79	28.4536
3057.95	28.4405
3056.1	12.1832
3054.25	8.11842
3052.4	32.4588
3050.56	4.05549
3048.71	36.4827
3046.85	24.3106
3045	28.3494
3043.15	16.1922
3041.3	28.3234
3039.44	36.3991
3037.59	20.2124
3035.73	-4.04063
3033.88	28.2714
3032.02	32.2954
3030.16	12.1052
3028.3	36.299
3026.44	24.1882
3024.58	36.2656
3022.72	16.1107
3020.85	20.1291
3018.99	44.2636
3017.13	32.1769
3015.26	20.1013
3013.4	48.221
3011.53	32.1326
3009.66	40.1472
3007.79	44.1416
3005.92	36.0993
3004.05	64.147
3002.18	52.0954
3000.31	20.0275
2998.44	36.0329
2996.56	48.0217
2994.69	35.9997
2992.81	47.9775
2990.93	87.9183
2989.06	55.9222
2987.18	59.8891
2985.3	31.9261
2983.42	59.8339
2981.54	55.8192
2979.66	39.8525
2977.78	47.801
2975.89	71.6684
2974.01	67.6556
2972.12	51.7128
2970.24	71.5693
2968.35	87.4332
2966.46	83.4205
2964.57	67.4997
2962.68	71.4373
2960.79	75.3712
2958.9	67.4062
2957.01	83.2281
2955.12	55.4598
2953.22	83.1512
2951.33	75.1973
2949.43	83.0744
2947.54	79.0819
2945.64	79.0454
2943.74	90.8602
2941.84	106.613
2939.94	134.191
2938.04	106.514
2936.14	122.237
2934.24	126.122
2932.33	110.306
2930.43	102.379
2928.52	110.204
2926.62	114.087
2924.71	133.695
2922.8	106.12
2920.89	106.071
2918.98	117.802
2917.07	90.2733
2915.16	121.616
2913.25	113.717
2911.34	125.423
2909.42	133.2
2907.51	93.9802
2905.59	136.991
2903.67	125.191
2901.76	156.416
2899.84	105.532
2897.92	74.2286
2896	132.769
2894.08	140.513
2892.16	128.744
2890.23	136.483
2888.31	155.908
2886.38	187.003
2884.46	128.505
2882.53	171.26
2880.6	147.838
2878.68	163.324
2876.75	124.38
2874.82	128.207
2872.89	170.863
2870.95	112.562
2869.02	159.065
2867.09	139.602
2865.15	135.661
2863.22	120.101
2861.28	143.28
2859.34	100.636
2857.4	131.54
2855.46	143.08
2853.52	146.878
2851.58	146.81
2849.64	104.264
2847.7	142.813
2845.76	115.741
2843.81	115.687
2841.87	73.2342
2839.92	50.0843
2837.97	111.674
2836.02	65.4338
2834.07	65.4032
2832.12	65.3727
2830.17	80.7169
2828.22	57.628
2826.27	23.0405
2824.31	46.0594
2822.36	34.5284
2820.4	65.1899
2818.45	26.8304
2816.49	30.649
2814.53	42.1227
2812.57	30.6204
2810.61	49.7349
2808.65	30.5918
2806.69	38.2218
2804.73	38.204
2802.76	38.1861
2800.8	34.3514
2798.83	22.8903
2796.87	61.0121
2794.9	34.3033
2792.93	57.1454
2790.96	57.1186
2788.99	19.0306
2787.02	34.2391
2785.05	53.2359
2783.08	60.8126
2781.1	41.7891
2779.13	75.9445
2777.15	41.7499
2775.17	45.524
2773.2	15.1676
2771.22	34.111
2769.24	41.6717
2767.26	34.0791
2765.28	49.2023
2763.3	45.3962
2761.31	22.6874
2759.33	37.7947
2757.34	45.3323
2755.36	33.9833
2753.37	33.9674
2751.38	37.7238
2749.39	37.7061
2747.4	56.5326
2745.41	56.506
2743.42	45.1836
2741.43	63.98
2739.44	52.6647
2737.44	67.6799
2735.45	41.3405
2733.45	63.8599
2731.45	41.3017
2729.45	67.5528
2727.46	67.521
2725.46	29.9952
2723.45	33.7288
2721.45	56.1881
2719.45	52.4176
2717.45	52.3929
2715.44	41.1465
2713.44	63.5601
2711.43	71.0043
2709.42	41.0884
2707.41	52.2697
2705.4	55.9769
2703.39	52.2205
2701.38	41.011
2699.37	48.4448
2697.36	37.2476
2695.34	40.9531
2693.33	59.54
2691.31	59.512
2689.29	40.8952
2687.28	40.8759
2685.26	22.2854
2683.24	48.2623
2681.22	33.3966
2679.19	48.2167
2677.17	63.0229
2675.15	22.2329
2673.12	44.4447
2671.1	66.6356
2669.07	18.5012
2667.04	40.6833
2665.01	44.3608
2662.99	51.7298
2660.95	70.1716
2658.92	51.6809
2656.89	81.1745
2654.86	44.2561
2652.82	40.5489
2650.79	51.5832
2648.75	51.5588
2646.72	44.1724
2644.68	58.8686
2642.64	62.5183
2640.6	47.7855
2638.56	25.7185
2636.51	55.0849
2634.47	25.6941
2632.43	36.6885
2630.38	51.3395
2628.34	58.6459
2626.29	47.6272
2624.24	73.2379
2622.19	65.8829
2620.14	54.8764
2618.09	47.537
2616.04	51.1694
2613.99	43.8386
2611.94	62.0753
2609.88	62.0458
2607.83	76.6084
2605.77	51.048
2603.71	40.0901
2601.65	54.6424
2599.59	65.5397
2597.53	40.033
2595.47	36.3764
2593.41	43.6309
2591.35	47.2443
2589.28	54.4868
2587.22	47.1994
2585.15	54.435
2583.08	50.7818
2581.01	65.2599
2578.94	72.4765
2576.87	61.5757
2574.8	76.0279
2572.73	32.5679
2570.66	47.0201
2568.58	83.1497
2566.51	72.2697
2564.43	68.6235
2562.35	64.9808
2560.28	54.1248
2558.2	43.2792
2556.12	68.4928
2554.04	68.4602
2551.95	61.2246
2549.87	53.996
2547.79	57.5682
2545.7	57.5408
2543.61	61.1079
2541.53	61.0787
2539.44	43.0938
2537.35	57.431
2535.26	71.7545
2533.17	60.9622
2531.08	50.1802
2528.98	53.7388
2526.89	60.8749
2524.79	50.1083
2522.7	60.8167
2520.6	67.9391
2518.5	57.1845
2516.4	92.8804
2514.3	60.7005
2512.2	64.2404
2510.1	64.2096
2508	53.4824
2505.89	42.7655
2503.79	60.5554
2501.68	56.966
2499.57	35.5867
2497.47	46.2406
2495.36	85.3264
2493.25	67.5177
2491.14	71.0372
2489.02	46.1521
2486.91	60.3238
2484.8	70.9351
2482.68	56.7209
2480.56	92.1272
2478.45	74.3748
2476.33	74.3391
2474.21	63.6887
2472.09	53.0484
2469.97	84.8368
2467.85	52.9975
2465.72	63.5665
2463.6	60.0062
2461.47	49.3931
2459.35	49.3694
2457.22	74.0185
2455.09	45.799
2452.96	84.5114
2450.83	63.3531
2448.7	70.3584
2446.57	77.3571
2444.43	52.7181
2442.3	77.2827
2440.16	84.2678
2438.02	105.284
2435.89	52.6167
2433.75	77.1341
2431.61	73.5925
2429.47	73.5571
2427.33	84.0248
2425.18	69.9869
2423.04	62.9579
2420.89	73.4155
2418.75	94.3459
2416.6	55.8817
2414.45	69.8185
2412.3	59.3171
2410.15	76.7263
2408	59.2599
2405.85	66.1997
2403.7	52.2377
2401.54	73.0975
2399.39	66.1039
2397.23	83.4594
2395.07	76.4675
2392.91	107.698
2390.75	100.701
2388.59	69.4153
2386.43	72.8508
2384.27	55.4786
2382.11	72.7804
2379.94	76.2093
2377.78	69.2477
2375.61	83.0571
2373.44	69.1808
2371.27	93.3489
2369.1	72.5695
2366.93	65.6264
2364.76	96.6658
2362.59	65.5629
2360.41	79.3272
2358.24	82.7361
2356.06	106.816
2353.88	89.544
2351.7	82.616
2349.53	92.8979
2347.34	79.0969
2345.16	96.2452
2342.98	96.1986
2340.8	68.68
2338.61	72.079
2336.43	72.044
2334.24	92.5831
2332.05	109.675
2329.86	137.027
2327.67	109.568
2325.48	58.18
2323.29	75.2552
2321.1	85.4758
2318.9	95.6864
2316.71	99.0556
2314.51	95.5934
2312.31	81.8974
2310.11	78.4469
2307.91	78.4087
2305.71	105.63
2303.51	112.39
2301.31	95.315
2299.1	115.683
2296.9	95.2222
2294.69	101.974
2292.49	78.1422
2290.28	81.5
2288.07	91.6428
2285.86	128.916
2283.65	115.29
2281.43	74.5629
2279.22	50.8136
2277.01	108.349
2274.79	87.991
2272.57	104.861
2270.36	98.0482
2268.14	101.38
2265.92	84.4419
2263.7	101.281
2261.47	104.606
2259.25	107.927
2257.03	121.359
2254.8	104.453
2252.57	84.1949
2250.35	104.351
2248.12	114.393
2245.89	97.5231
2243.66	117.643
2241.42	104.147
2239.19	100.738
2236.96	117.47
2234.72	97.285
2232.48	140.827
2230.25	107.244
2228.01	97.1424
2225.77	103.791
2223.53	130.512
2221.29	96.9998
2219.04	127.041
2216.8	110.271
2214.55	126.917
2212.31	70.1038
2210.06	133.466
2207.81	120.06
2205.56	123.335
2203.31	126.606
2201.06	123.214
2198.81	126.482
2196.55	119.766
2194.3	99.7562
2192.04	109.678
2189.78	96.3364
2187.53	109.57
2185.27	129.429
2183	106.146
2180.74	132.617
2178.48	99.414
2176.22	142.423
2173.95	112.559
2171.68	115.812
2169.42	119.063
2167.15	125.615
2164.88	102.425
2162.61	108.98
2160.34	115.528
2158.06	115.471
2155.79	138.497
2153.51	108.766
2151.24	138.361
2148.96	131.707
2146.68	121.769
2144.4	141.446
2142.12	134.801
2139.84	121.589
2137.56	131.383
2135.27	118.187
2132.99	137.817
2130.7	131.189
2128.41	163.906
2126.13	137.613
2123.84	134.27
2121.54	124.384
2119.25	147.224
2116.96	147.152
2114.67	134.005
2112.37	140.473
2110.07	143.669
2107.78	146.861
2105.48	130.479
2103.18	107.592
2100.88	159.679
2098.57	162.857
2096.27	136.732
2093.97	146.426
2091.66	117.083
2089.35	133.279
2087.04	126.715
2084.74	139.642
2082.43	136.327
2080.11	142.748
2077.8	155.648
2075.49	142.607
2073.17	145.776
2070.86	152.179
2068.54	155.34
2066.22	194.079
2063.9	122.856
2061.58	119.563
2059.26	164.722
2056.94	142.043
2054.61	151.652
2052.29	138.677
2049.96	138.608
2047.63	138.539
2045.31	141.691
2042.98	148.058
2040.64	141.55
2038.31	138.264
2035.98	163.906
2033.64	154.188
2031.31	154.112
2028.97	144.408
2026.63	147.544
2024.3	160.294
2021.96	169.827
2019.61	160.134
2017.27	163.256
2014.93	179.172
2012.58	182.281
2010.24	143.834
2007.89	140.568
2005.54	143.691
2003.19	143.62
2000.84	165.878
1998.49	181.737
1996.14	165.713
1993.78	168.815
1991.43	194.2
1989.07	159.101
1986.71	184.465
1984.35	200.267
1981.99	184.281
1979.63	158.784
1977.27	177.749
1974.91	174.488
1972.54	190.256
1970.17	196.499
1967.81	177.395
1965.44	205.802
1963.07	167.724
1960.7	208.759
1958.33	180.202
1955.95	161.153
1953.58	167.389
1951.2	205.186
1948.83	182.997
1946.45	160.831
1944.07	211.182
1941.69	192.174
1939.31	233.012
1936.93	185.687
1934.54	179.303
1932.16	232.662
1929.77	197.978
1927.38	216.725
1924.99	210.338
1922.6	229.059
1920.21	210.127
1917.82	197.483
1915.43	228.715
1913.03	212.942
1910.64	222.225
1908.24	212.729
1905.84	218.876
1903.44	215.641
1901.04	234.274
1898.64	240.401
1896.24	212.196
1893.83	202.732
1891.43	243.157
1889.02	221.224
1886.61	227.341
1884.2	217.889
1881.79	258.224
1879.38	230.108
1876.97	242.424
1874.56	276.473
1872.14	226.656
1869.72	251.369
1867.31	229.53
1864.89	223.214
1862.47	254.088
1860.05	253.96
1857.62	247.641
1855.2	259.892
1852.78	290.685
1850.35	287.448
1847.92	262.589
1845.49	231.579
1843.06	277.755
1840.63	265.276
1838.2	299.056
1835.77	249.601
1833.33	274.115
1830.9	295.525
1828.46	276.915
1826.02	270.625
1823.58	255.12
1821.14	264.207
1818.7	270.215
1816.25	297.7
1813.81	263.807
1811.36	306.597
1808.92	214.51
1806.47	297.099
1804.02	275.519
1801.57	296.799
1799.12	287.474
1796.66	253.705
1794.21	293.293
1791.75	302.305
1789.3	305.204
1786.84	311.151
1784.38	289.651
1781.92	265.125
1779.46	292.403
1776.99	283.122
1774.53	279.936
1772.06	301.083
1769.6	300.93
1767.13	264.319
1764.66	327.954
1762.19	355.103
1759.72	306.387
1757.24	291.071
1754.77	296.984
1752.29	354.383
1749.82	342.094
1747.34	387.308
1744.86	353.843
1742.38	317.39
1739.9	356.505
1737.41	323.107
1734.93	386.324
1732.44	340.879
1729.95	394.977
1727.47	340.532
1724.98	376.503
1722.49	388.353
1719.99	355.057
1717.5	372.921
1715.01	357.702
1712.51	360.524
1710.01	363.343
1707.51	351.153
1705.01	359.973
1702.51	356.791
1700.01	341.626
1697.51	344.447
1695	371.214
1692.5	406.93
1689.99	376.817
1687.48	403.526
1684.97	382.407
1682.46	418.045
1679.95	385.002
1677.43	378.839
1674.92	381.627
1672.4	455.93
1669.88	521.223
1667.36	461.418
1664.84	476.059
1662.32	505.555
1659.8	484.49
1657.28	493.154
1654.75	495.871
1652.22	442.198
1649.7	447.904
1647.17	492.146
1644.64	414.85
1642.1	470.91
1639.57	470.669
1637.04	423.089
1634.5	425.83
1631.96	399.011
1629.42	416.531
1626.88	434.033
1624.34	422.006
1621.8	356.899
1619.26	403.885
1616.71	424.303
1614.17	456.481
1611.62	397.376
1609.07	456.013
1606.52	396.968
1603.97	396.765
1601.42	402.436
1598.86	411.037
1596.31	404.957
1593.75	422.346
1591.19	413.335
1588.63	436.562
1586.07	409.981
1583.51	418.551
1580.95	394.933
1578.38	421.045
1575.82	432.518
1573.25	423.532
1570.68	449.589
1568.11	423.096
1565.54	414.129
1562.97	466.384
1560.39	407.876
1557.82	422.225
1555.24	451.111
1552.66	474.15
1550.08	444.831
1547.5	441.696
1544.92	450.181
1542.34	452.852
1539.75	467.125
1537.17	432.085
1534.58	457.948
1531.99	475.093
1529.4	437.207
1526.81	474.602
1524.22	468.572
1521.62	479.894
1519.03	491.203
1516.43	433.191
1513.83	461.831
1511.24	496.211
1508.64	490.188
1506.03	495.698
1503.43	509.844
1500.83	498.064
1498.22	466.154
1495.61	463.036
1493	491.542
1490.39	476.922
1487.78	508.262
1485.17	530.959
1482.55	481.918
1479.94	530.408
1477.32	601.773
1474.7	604.325
1472.09	578.248
1469.46	618.004
1466.84	674.876
1464.22	620.22
1461.59	697.028
1458.97	730.929
1456.34	713.427
1453.71	710.204
1451.08	746.895
1448.45	735.109
1445.81	709.097
1443.18	788.425
1440.54	844.911
1437.91	855.845
1435.27	718.991
1432.63	710.095
1429.99	664.303
1427.34	661.12
1424.7	674.956
1422.05	660.432
1419.41	657.255
1416.76	603.113
1414.11	611.289
1411.46	610.971
1408.81	593.69
1406.15	627.288
1403.5	584.598
1400.84	530.662
1398.18	598.094
1395.52	580.864
1392.86	622.835
1390.2	597.158
1387.54	695.383
1384.87	664.067
1382.21	694.656
1379.54	750.512
1376.87	744.5
1374.2	696.376
1371.53	768.981
1368.85	782.604
1366.18	765.373
1363.5	753.764
1360.82	722.563
1358.15	722.185
1355.47	682.639
1352.78	687.874
1350.1	718.256
1347.42	717.88
1344.73	731.463
1342.04	664.111
1339.35	713.963
1336.66	674.565
1333.97	663.067
1331.28	676.642
1328.58	720.816
1325.89	753.818
1323.19	683.918
1320.49	741.912
1317.79	702.641
1315.09	693.945
1312.39	768.487
1309.68	673.806
1306.98	712.252
1304.27	734.037
1301.56	755.799
1298.85	946.328
1296.14	920.94
1293.43	920.455
1290.71	950.361
1288	960.906
1285.28	982.478
1282.56	976.444
1279.84	923.55
1277.12	810.092
1274.4	718.784
1271.67	718.406
1268.95	652.002
1266.22	670.905
1263.49	596.351
1260.76	623.504
1258.03	601.213
1255.3	655.772
1252.56	521.05
1249.83	616.708
1247.09	569.811
1244.35	550.344
1241.61	561
1238.87	541.557
1236.13	527.603
1233.38	510.931
1230.64	532.507
1227.89	502.203
1225.14	545.584
1222.39	523.484
1219.64	515.032
1216.89	495.694
1214.13	492.71
1211.37	487.007
1208.62	532.977
1205.86	510.953
1203.1	491.667
1200.34	464.257
1197.57	464.011
1194.81	461.053
1192.04	504.179
1189.27	495.784
1186.5	498.229
1183.73	500.671
1180.96	535.569
1178.19	556.913
1175.41	578.234
1172.63	545.52
1169.86	534.433
1167.08	526.057
1164.3	536.562
1161.51	549.752
1158.73	606.022
1155.94	621.851
1153.16	616.14
1150.37	591.61
1147.58	618.172
1144.79	550.687
1141.99	587.982
1139.2	595.719
1136.4	640.996
1133.61	667.46
1130.81	683.18
1128.01	781.891
1125.2	685.128
1122.4	647.315
1119.6	630.93
1116.79	609.218
1113.98	584.858
1111.17	584.546
1108.36	514.873
1105.55	589.255
1102.74	578.281
1099.92	591.29
1097.1	614.932
1094.29	587.998
1091.47	571.729
1088.64	584.712
1085.82	597.682
1083	607.982
1080.17	605.004
1077.34	599.376
1074.51	588.453
1071.68	574.892
1068.85	603.71
1066.02	709.245
1063.18	685.06
1060.35	639.752
1057.51	581.282
1054.67	554.563
1051.83	554.266
1048.99	588.262
1046.14	551.035
1043.3	579.726
1040.45	492.503
1037.6	547.517
1034.75	547.224
1031.9	581.113
1029.04	530.868
1026.19	499.064
1023.33	527.673
1020.48	545.757
1017.62	506.127
1014.75	482.266
1011.89	542.258
1009.03	568.149
1006.16	512.891
1003.3	504.769
1000.43	509.726
997.557	499.001
994.685	517.011
991.811	488.025
988.937	537.322
986.06	466.645
983.182	502.871
980.303	499.996
977.422	491.919
974.539	528.072
971.655	449.79
968.769	467.737
965.882	509.039
962.993	472.424
960.103	479.953
957.211	471.915
954.317	489.801
951.422	512.848
948.526	520.337
945.627	470.897
942.728	486.158
939.826	483.311
936.923	477.884
934.019	513.77
931.113	500.591
928.205	513.215
925.296	528.403
922.385	515.236
919.473	502.083
916.559	579.014
913.644	552.98
910.726	526.975
907.808	585.781
904.888	577.761
901.966	600.546
899.042	597.655
896.117	571.695
893.191	566.261
890.263	604.367
887.333	583.563
884.402	585.805
881.469	608.497
878.534	613.278
875.598	674.239
872.66	656.006
869.721	681.161
866.78	665.492
863.838	779.809
860.894	794.667
857.948	794.235
855.001	814.157
852.052	780.658
849.101	831.063
846.149	797.589
843.195	792.078
840.24	730.751
837.283	704.994
834.324	664.057
831.364	648.496
828.403	602.571
825.439	587.06
822.474	594.327
819.508	566.199
816.539	578.522
813.569	510.033
810.598	613.22
807.625	509.477
804.65	489.033
801.674	511.441
798.696	523.752
795.716	498.299
792.735	477.905
789.752	470.102
786.768	479.895
783.782	512.278
780.794	547.135
777.804	499.176
774.813	506.425
771.821	521.182
768.827	460.793
765.831	513.103
762.833	542.841
759.834	492.54
756.833	522.256
753.83	561.929
750.826	514.196
747.821	528.882
744.813	568.486
741.804	583.127
738.793	535.485
735.781	592.444
732.767	549.825
729.751	537.091
726.734	506.974
723.715	543.953
720.694	575.926
717.672	540.875
714.648	543.057
711.622	557.629
708.595	616.77
705.566	609.005
702.535	591.35
699.503	578.66
696.469	630.244
693.433	597.785
690.396	609.801
687.357	621.802
684.316	562.273
681.274	606.329
678.23	554.264
675.184	588.427
672.137	605.328
669.088	577.942
666.037	580.081
662.985	601.871
659.93	569.621
656.875	640.47
653.817	605.781
650.758	612.8
647.697	600.212
644.635	587.639
641.57	660.728
638.505	613.893
635.437	625.776
632.368	676.736
629.297	683.687
626.224	695.511
623.149	653.662
620.073	645.988
616.995	660.249
613.916	647.708
610.835	623.013
607.752	642.127
604.667	619.893
601.581	643.845
598.493	726.05
595.403	592.167
592.311	637.925
589.218	652.116
586.123	668.715
583.027	670.766
579.928	665.553
576.828	628.901
573.727	657.562
570.623	674.11
567.518	746.181
564.411	622.679
561.302	656.103
558.192	667.792
555.08	657.784
551.966	655.01
548.85	625.764
545.733	632.633
542.614	680.363
539.493	684.79
536.37	667.599
533.246	619.225
530.12	659.659
526.992	666.484
523.863	637.36
520.731	677.716
517.598	643.83
514.464	605.198
511.327	671.802
508.189	664.259
505.049	678.217
501.907	653.971
498.764	632.137
495.618	612.712
492.471	667.173
489.323	659.656
486.172	659.288
483.02	651.783
479.866	630.022
476.71	643.927
473.552	596.071
470.393	607.605
467.232	680.801
464.069	663.825
460.904	717.951
457.738	679.659
454.569	712.414
451.399	752.229
448.228	723.437
445.054	763.2
441.879	755.688
438.702	696.26
435.523	719.458
432.342	737.915
429.16	704.514
425.976	687.634
422.79	720.199
419.602	771.545
416.412	740.549
413.221	695.49
410.028	737.369
406.833	711.138
403.636	769.38
400.437	790.047
397.237	784.917
394.035	723.591
390.831	769.992
387.625	776.576
384.417	727.046
381.208	731.31
377.997	723.893
374.784	763.16
371.569	772.06
368.352	708.683
365.134	740.902
361.914	726.513
358.691	737.74
355.468	755.931
352.242	764.804
349.014	699.319
345.785	766.263
342.554	742.623
339.321	753.801
336.086	741.785
332.849	708.931
329.611	706.216
326.37	805.325
323.128	772.49
319.884	765.119
316.639	778.548
313.391	759.636
310.141	784.59
306.89	770.308
303.637	779.092
300.382	746.399
297.125	812.746
293.866	816.888
290.606	758.931
287.343	815.963
284.079	826.986
280.813	854.068
277.545	832.932
274.275	809.527
271.004	859.491
267.73	806.318
264.455	885.989
261.177	892.35
257.898	884.983
254.617	866.196
251.335	895.399
248.05	958.811
244.763	951.421
241.475	998.766
238.185	1046.06
234.892	1031.8
231.598	1019.83
228.302	978.295
225.005	1068.69
221.705	1068.08
218.403	1078.83
215.1	1050.98
211.795	1132.05
208.487	1052.05
205.178	1087.7
201.867	1064.44
198.554	1122.68
195.24	1112.99
191.923	1112.35
188.604	1046.19
185.284	1059.14
181.962	1096.91
178.637	1060.19
175.311	1084.38
171.983	1058.98
168.653	1173.22
165.321	1217.56
161.988	1207.87
158.652	1202.68
155.314	1282.87
151.975	1264.18
148.634	1359.95
145.29	1399.54
141.945	1481.68
138.598	1539.08
135.249	1609.85
131.898	1664.87
128.545	1748.9
125.19	1810.48
121.833	1909.97
118.475	2065.15
115.114	2144.3
111.752	2263.49
108.387	2308.99
105.021	2042.6
101.652	2146.05
100.529	2014.32