File: Spicy-Raman/model_train_and_validate/Raman_Data/polyethylene/Set5Sample2_2 - 5_.txt
3201.19	16.8448
3199.41	-12.6298
3197.63	4.20803
3195.84	33.649
3194.06	37.8379
3192.28	21.0115
3190.49	33.6032
3188.7	0
3186.92	37.7694
3185.13	20.9735
3183.34	16.7712
3181.55	0
3179.76	37.7009
3177.97	20.9354
3176.18	58.5926
3174.39	33.4663
3172.59	33.4511
3170.8	12.5385
3169	16.7104
3167.21	16.7028
3165.41	16.6952
3163.61	4.1719
3161.82	8.34001
3160.02	12.5043
3158.22	20.8311
3156.42	29.1502
3154.61	0
3152.81	29.1237
3151.01	8.31728
3149.2	20.7838
3147.4	4.15486
3145.59	0
3143.79	16.6043
3141.98	12.4476
3140.17	33.1784
3138.36	20.7271
3136.55	24.8612
3134.74	41.4164
3132.93	12.4193
3131.12	8.27574
3129.31	8.27197
3127.49	20.6705
3125.68	16.5289
3123.86	4.13033
3122.05	16.5138
3120.23	24.7594
3118.41	8.24937
3116.59	8.24561
3114.77	20.6046
3112.95	32.9524
3111.13	24.703
3109.31	28.807
3107.48	0
3105.66	0
3103.84	20.5483
3102.01	-16.4311
3100.18	0
3098.36	36.9363
3096.53	8.20431
3094.7	24.6017
3092.87	16.3936
3091.04	16.3861
3089.21	12.284
3087.38	4.09279
3085.54	40.9092
3083.71	16.3562
3081.87	16.3487
3080.04	20.4266
3078.2	32.6676
3076.37	24.4895
3074.53	36.7174
3072.69	20.3892
3070.85	28.5318
3069.01	24.4447
3067.17	20.3612
3065.32	24.4223
3063.48	24.4111
3061.64	0
3059.79	-4.06479
3057.95	32.5035
3056.1	-12.1832
3054.25	40.5921
3052.4	12.172
3050.56	20.2774
3048.71	24.3218
3046.85	32.4142
3045	-4.04991
3043.15	16.1922
3041.3	36.4158
3039.44	24.2661
3037.59	-8.08498
3035.73	16.1625
3033.88	24.2327
3032.02	16.1477
3030.16	24.2104
3028.3	8.06644
3026.44	-4.03137
3024.58	24.1771
3022.72	56.3873
3020.85	32.2065
3018.99	8.04793
3017.13	44.2433
3015.26	24.1216
3013.4	44.2026
3011.53	24.0994
3009.66	28.1031
3007.79	44.1416
3005.92	48.1324
3004.05	16.0367
3002.18	64.1175
3000.31	52.0715
2998.44	36.0329
2996.56	36.0163
2994.69	71.9994
2992.81	47.9775
2990.93	59.9443
2989.06	51.9278
2987.18	27.9482
2985.3	51.8799
2983.42	47.8671
2981.54	35.8838
2979.66	75.7198
2977.78	79.6683
2975.89	75.65
2974.01	95.5138
2972.12	47.7349
2970.24	67.5932
2968.35	95.3817
2966.46	95.3377
2964.57	79.4114
2962.68	91.2809
2960.79	83.305
2958.9	107.057
2957.01	95.1178
2955.12	122.804
2953.22	102.949
2951.33	83.1128
2949.43	122.634
2947.54	126.531
2945.64	126.473
2943.74	169.869
2941.84	165.842
2939.94	177.606
2938.04	185.413
2936.14	165.612
2934.24	165.535
2932.33	177.277
2930.43	165.382
2928.52	153.498
2926.62	192.767
2924.71	157.288
2922.8	165.076
2920.89	133.571
2918.98	192.411
2917.07	196.246
2915.16	160.847
2913.25	180.379
2911.34	164.618
2909.42	188.048
2907.51	144.886
2905.59	203.529
2903.67	179.962
2901.76	215.072
2899.84	183.703
2897.92	207.059
2896	199.153
2894.08	195.157
2892.16	241.883
2890.23	233.971
2888.31	167.602
2886.38	241.546
2884.46	272.586
2882.53	241.322
2880.6	225.648
2878.68	252.763
2876.75	213.777
2874.82	194.253
2872.89	178.629
2870.95	190.191
2869.02	190.102
2867.09	201.647
2865.15	201.554
2863.22	232.454
2861.28	182.004
2859.34	189.661
2857.4	224.392
2855.46	216.553
2853.52	255.105
2851.58	200.898
2849.64	239.421
2847.7	223.87
2845.76	192.901
2843.81	173.53
2841.87	131.051
2839.92	142.547
2837.97	80.8676
2836.02	73.1318
2834.07	76.945
2832.12	57.6818
2830.17	42.2803
2828.22	65.3118
2826.27	57.6012
2824.31	57.5743
2822.36	23.019
2820.4	23.0082
2818.45	53.6608
2816.49	22.9867
2814.53	72.7573
2812.57	38.2755
2810.61	38.2576
2808.65	49.7116
2806.69	45.8662
2804.73	22.9224
2802.76	61.0978
2800.8	61.0692
2798.83	15.2602
2796.87	30.5061
2794.9	38.1147
2792.93	30.4775
2790.96	49.5028
2788.99	7.61225
2787.02	45.6522
2785.05	30.4205
2783.08	34.2071
2781.1	30.392
2779.13	30.3778
2777.15	34.159
2775.17	37.9367
2773.2	56.8784
2771.22	45.4814
2769.24	3.78834
2767.26	45.4388
2765.28	34.0631
2763.3	41.6132
2761.31	34.0312
2759.33	34.0152
2757.34	33.9992
2755.36	37.7592
2753.37	64.1606
2751.38	67.9028
2749.39	26.3943
2747.4	41.4572
2745.41	52.739
2743.42	30.1224
2741.43	67.7436
2739.44	45.1412
2737.44	52.6399
2735.45	52.6152
2733.45	60.1034
2731.45	52.5658
2729.45	48.7881
2727.46	60.0187
2725.46	59.9904
2723.45	59.9622
2721.45	78.6634
2719.45	56.1617
2717.45	52.3929
2715.44	63.59
2713.44	37.3883
2711.43	78.4785
2709.42	59.765
2707.41	22.4013
2705.4	29.8543
2703.39	37.3003
2701.38	48.4676
2699.37	29.8122
2697.36	48.4219
2695.34	33.5071
2693.33	26.0488
2691.31	44.634
2689.29	40.8952
2687.28	26.0119
2685.26	29.7139
2683.24	37.1248
2681.22	63.0824
2679.19	40.7988
2677.17	70.4374
2675.15	33.3493
2673.12	51.8522
2671.1	40.7218
2669.07	14.8009
2667.04	51.7788
2665.01	51.7543
2662.99	48.0348
2660.95	33.2392
2658.92	55.3724
2656.89	33.2077
2654.86	22.128
2652.82	25.8038
2650.79	22.1071
2648.75	25.7794
2646.72	33.1293
2644.68	36.7929
2642.64	40.453
2640.6	44.1097
2638.56	51.4369
2636.51	25.7063
2634.47	40.3764
2632.43	36.6885
2630.38	62.3408
2628.34	58.6459
2626.29	36.6363
2624.24	43.9427
2622.19	47.5821
2620.14	43.9011
2618.09	36.5669
2616.04	32.8946
2613.99	18.2661
2611.94	40.1663
2609.88	54.7463
2607.83	43.7763
2605.77	47.4018
2603.71	54.6684
2601.65	50.9996
2599.59	14.5644
2597.53	43.6724
2595.47	50.9269
2593.41	32.7232
2591.35	47.2443
2589.28	39.957
2587.22	39.938
2585.15	47.177
2583.08	18.1364
2581.01	50.7577
2578.94	39.8621
2576.87	18.1105
2574.8	18.1019
2572.73	28.9492
2570.66	43.4031
2568.58	18.076
2566.51	36.1348
2564.43	46.9529
2562.35	36.1004
2560.28	25.2583
2558.2	54.099
2556.12	43.2586
2554.04	36.0317
2551.95	21.6087
2549.87	43.1968
2547.79	35.9801
2545.7	32.3667
2543.61	28.7567
2541.53	79.0431
2539.44	28.7292
2537.35	14.3577
2535.26	50.2281
2533.17	53.7902
2531.08	39.4273
2528.98	53.7388
2526.89	35.8087
2524.79	42.95
2522.7	57.2392
2520.6	28.6059
2518.5	21.4442
2516.4	32.1509
2514.3	60.7005
2512.2	21.4135
2510.1	32.1048
2508	28.524
2505.89	17.8189
2503.79	53.4312
2501.68	24.9226
2499.57	53.3801
2497.47	42.6836
2495.36	14.2211
2493.25	46.1963
2491.14	21.3112
2489.02	31.9514
2486.91	35.4846
2484.8	39.0143
2482.68	42.5407
2480.56	42.5203
2478.45	31.8749
2476.33	49.5594
2474.21	35.3826
2472.09	35.3656
2469.97	35.3486
2467.85	45.9312
2465.72	42.3777
2463.6	56.4764
2461.47	74.0897
2459.35	52.8958
2457.22	59.9198
2455.09	42.276
2452.96	17.6065
2450.83	59.8334
2448.7	35.1792
2446.57	31.6461
2444.43	35.1454
2442.3	49.1799
2440.16	42.1339
2438.02	35.0947
2435.89	45.6012
2433.75	59.6036
2431.61	66.5837
2429.47	66.5517
2427.33	52.5155
2425.18	27.9948
2423.04	38.4743
2420.89	27.9678
2418.75	52.4144
2416.6	52.3891
2414.45	38.4002
2412.3	62.8063
2410.15	59.2885
2408	34.8588
2405.85	24.3894
2403.7	52.2377
2401.54	55.6933
2399.39	52.1873
2397.23	55.6396
2395.07	41.7096
2392.91	48.6377
2390.75	55.5591
2388.59	48.5907
2386.43	52.0363
2384.27	48.5438
2382.11	48.5203
2379.94	55.425
2377.78	48.4734
2375.61	48.45
2373.44	41.5085
2371.27	51.8605
2369.1	48.3797
2366.93	65.6264
2364.76	41.4282
2362.59	51.7602
2360.41	75.8782
2358.24	48.2627
2356.06	48.2394
2353.88	61.992
2351.7	48.1926
2349.53	51.61
2347.34	37.829
2345.16	54.9973
2342.98	58.4063
2340.8	51.51
2338.61	78.9437
2336.43	44.5987
2334.24	41.1481
2332.05	44.5554
2329.86	41.1081
2327.67	41.0882
2325.48	44.4906
2323.29	58.1518
2321.1	44.4474
2318.9	47.8432
2316.71	75.1456
2314.51	54.6248
2312.31	34.1239
2310.11	30.6966
2307.91	71.5906
2305.71	68.1484
2303.51	71.521
2301.31	47.6575
2299.1	40.8294
2296.9	27.2064
2294.69	44.1888
2292.49	61.1547
2290.28	57.7291
2288.07	67.8836
2285.86	47.4954
2283.65	74.5992
2281.43	57.6168
2279.22	54.2011
2277.01	77.8762
2274.79	77.8382
2272.57	77.8003
2270.36	84.5243
2268.14	54.0692
2265.92	50.6651
2263.7	64.1445
2261.47	77.6107
2259.25	37.1001
2257.03	80.9061
2254.8	87.6055
2252.57	70.7237
2250.35	57.2246
2248.12	47.1031
2245.89	36.9915
2243.66	57.1408
2241.42	67.1916
2239.19	70.5167
2236.96	67.1259
2234.72	63.7385
2232.48	73.7663
2230.25	87.1358
2228.01	43.5466
2225.77	63.6139
2223.53	70.2756
2221.29	73.5861
2219.04	46.8046
2216.8	50.1232
2214.55	50.0987
2212.31	56.7507
2210.06	50.0496
2207.81	63.3651
2205.56	53.3339
2203.31	63.303
2201.06	66.6021
2198.81	76.5549
2196.55	59.8831
2194.3	76.4798
2192.04	39.8829
2189.78	59.795
2187.53	69.7266
2185.27	66.3737
2183	79.6094
2180.74	82.8857
2178.48	79.5312
2176.22	49.6826
2173.95	66.2109
2171.68	82.723
2169.42	42.9948
2167.15	69.419
2164.88	49.5606
2162.61	59.4435
2160.34	92.4223
2158.06	72.5818
2155.79	72.5461
2153.51	72.5104
2151.24	59.2975
2148.96	82.3171
2146.68	78.9855
2144.4	62.4994
2142.12	69.0442
2139.84	72.2964
2137.56	68.9762
2135.27	65.6593
2132.99	75.471
2130.7	75.4338
2128.41	75.3966
2126.13	88.4654
2123.84	62.2227
2121.54	85.1049
2119.25	75.2479
2116.96	75.2108
2114.67	84.979
2112.37	114.338
2110.07	62.0387
2107.78	88.1167
2105.48	91.3352
2103.18	78.2486
2100.88	84.7275
2098.57	78.1713
2096.27	81.3882
2093.97	65.0784
2091.66	100.822
2089.35	91.0197
2087.04	71.4801
2084.74	61.7023
2082.43	84.3929
2080.11	71.374
2077.8	68.096
2075.49	87.5087
2073.17	77.747
2070.86	110.087
2068.54	77.67
2066.22	84.1008
2063.9	77.5931
2061.58	51.7031
2059.26	77.5162
2056.94	74.2495
2054.61	96.7991
2052.29	74.1759
2049.96	70.9156
2047.63	106.321
2045.31	99.8274
2042.98	80.466
2040.64	86.8602
2038.31	77.1707
2035.98	93.2017
2033.64	77.0941
2031.31	73.8451
2028.97	112.317
2026.63	93.0166
2024.3	89.7645
2021.96	92.9241
2019.61	64.0537
2017.27	86.4295
2014.93	99.1846
2012.58	89.5415
2010.24	86.3006
2007.89	67.0893
2005.54	86.2147
2003.19	63.831
2000.84	102.079
1998.49	82.8976
1996.14	101.977
1993.78	117.852
1991.43	70.0394
1989.07	85.9146
1986.71	104.954
1984.35	108.081
1981.99	108.027
1979.63	123.851
1977.27	88.8746
1974.91	101.52
1972.54	85.615
1970.17	88.7416
1967.81	126.71
1965.44	82.3207
1963.07	75.9504
1960.7	94.8905
1958.33	129.619
1955.95	101.115
1953.58	101.065
1951.2	132.581
1948.83	113.584
1946.45	154.524
1944.07	116.623
1941.69	103.963
1939.31	160.589
1936.93	119.595
1934.54	122.681
1932.16	141.484
1929.77	131.986
1927.38	128.779
1924.99	91.0416
1922.6	138.063
1920.21	128.585
1917.82	100.309
1915.43	122.19
1913.03	128.392
1910.64	134.587
1908.24	150.162
1905.84	131.325
1903.44	175.013
1901.04	137.441
1898.64	134.25
1896.24	115.459
1893.83	149.71
1891.43	130.93
1889.02	146.444
1886.61	124.57
1884.2	164.973
1881.79	143.112
1879.38	136.821
1876.97	161.616
1874.56	133.577
1872.14	167.663
1869.72	164.476
1867.31	192.309
1864.89	176.711
1862.47	182.819
1860.05	164.145
1857.62	195.017
1855.2	151.604
1852.78	142.25
1850.35	163.814
1847.92	151.375
1845.49	163.649
1843.06	197.515
1840.63	154.23
1838.2	154.153
1835.77	160.238
1833.33	200.196
1830.9	203.174
1828.46	181.533
1826.02	166.065
1823.58	178.276
1821.14	205.836
1818.7	178.096
1816.25	202.559
1813.81	162.579
1811.36	199.288
1808.92	162.415
1806.47	174.584
1804.02	214.293
1801.57	137.69
1799.12	177.377
1796.66	171.174
1794.21	171.088
1791.75	180.162
1789.3	238.059
1786.84	152.525
1784.38	228.672
1781.92	167.608
1779.46	204.073
1776.99	197.881
1774.53	219.08
1772.06	215.928
1769.6	209.739
1767.13	218.747
1764.66	191.307
1762.19	227.63
1759.72	218.414
1757.24	200.112
1754.77	212.132
1752.29	236.255
1749.82	211.916
1747.34	226.938
1744.86	247.993
1742.38	229.73
1739.9	238.677
1737.41	211.379
1734.93	223.344
1732.44	196.081
1729.95	241.207
1727.47	244.098
1724.98	231.926
1722.49	234.818
1719.99	225.672
1717.5	276.683
1715.01	270.531
1712.51	258.375
1710.01	255.241
1707.51	258.112
1705.01	272.98
1702.51	242.858
1700.01	272.701
1697.51	245.606
1695	263.442
1692.5	293.229
1689.99	272.145
1687.48	257.061
1684.97	346.557
1682.46	310.547
1679.95	340.234
1677.43	346.026
1674.92	351.812
1672.4	354.613
1669.88	354.431
1667.36	351.273
1664.84	371.921
1662.32	347.94
1659.8	365.597
1657.28	377.293
1654.75	359.284
1652.22	424.391
1649.7	367.815
1647.17	343.909
1644.64	370.402
1642.1	319.863
1639.57	316.739
1637.04	372.792
1634.5	316.415
1631.96	313.297
1629.42	360.403
1626.88	307.071
1624.34	357.082
1621.8	303.806
1619.26	321.339
1616.71	306.441
1614.17	306.284
1611.62	256.087
1609.07	291.26
1606.52	273.467
1603.97	264.51
1601.42	302.561
1598.86	296.534
1596.31	302.25
1593.75	296.229
1591.19	290.214
1588.63	275.415
1586.07	284.059
1583.51	280.986
1580.95	315.946
1578.38	277.773
1575.82	312.699
1573.25	286.249
1570.68	289.021
1568.11	274.283
1565.54	309.139
1562.97	265.256
1560.39	314.647
1557.82	311.573
1555.24	276.488
1552.66	287.981
1550.08	343.073
1547.5	331.272
1544.92	299.153
1542.34	264.164
1539.75	313.351
1537.17	336.389
1534.58	292.739
1531.99	298.381
1529.4	263.482
1526.81	292.285
1524.22	306.597
1521.62	306.438
1519.03	317.837
1516.43	346.552
1513.83	320.395
1511.24	334.654
1508.64	325.831
1506.03	331.426
1503.43	299.569
1500.83	365.631
1498.22	345.299
1495.61	368.128
1493	339.193
1490.39	350.509
1487.78	361.813
1485.17	393.196
1482.55	358.57
1479.94	395.656
1477.32	404.047
1474.7	435.343
1472.09	506.682
1469.46	506.42
1466.84	540.472
1464.22	654.518
1461.59	662.748
1458.97	670.97
1456.34	676.329
1453.71	661.716
1451.08	647.119
1448.45	643.933
1445.81	723.336
1443.18	788.425
1440.54	893.273
1437.91	941.145
1435.27	710.465
1432.63	661.809
1429.99	519.519
1427.34	505.062
1424.7	504.799
1422.05	544.218
1419.41	473.11
1416.76	515.336
1414.11	464.127
1411.46	463.885
1408.81	480.606
1406.15	432.32
1403.5	457.512
1400.84	423.401
1398.18	437.286
1395.52	448.337
1392.86	436.83
1390.2	492.937
1387.54	515.202
1384.87	506.492
1382.21	576.537
1379.54	559.37
1376.87	539.412
1374.2	584.057
1371.53	594.978
1368.85	577.837
1366.18	569.124
1363.5	574.43
1360.82	543.323
1358.15	554.235
1355.47	548.349
1352.78	545.266
1350.1	572.928
1347.42	550.282
1344.73	519.283
1342.04	535.753
1339.35	513.161
1336.66	588.154
1333.97	540.483
1331.28	509.57
1328.58	562.181
1325.89	606.392
1323.19	517.109
1320.49	547.403
1317.79	599.883
1315.09	591.241
1312.39	599.253
1309.68	540.709
1306.98	629.109
1304.27	623.239
1301.56	722.577
1298.85	788.606
1296.14	904.346
1293.43	837.532
1290.71	814.99
1288	825.606
1285.28	822.411
1282.56	753.021
1279.84	716.785
1277.12	647.522
1274.4	559.054
1271.67	451.412
1268.95	517.2
1266.22	489.431
1263.49	450.699
1260.76	472.435
1258.03	477.676
1255.3	441.755
1252.56	416.84
1249.83	444.029
1247.09	427.358
1244.35	432.609
1241.61	415.961
1238.87	380.184
1236.13	418.255
1233.38	385.247
1230.64	417.813
1227.89	360.276
1225.14	349.174
1222.39	346.263
1219.64	373.33
1216.89	354.067
1214.13	345.713
1211.37	375.458
1208.62	364.382
1205.86	377.779
1203.1	339.549
1200.34	323.08
1197.57	341.903
1194.81	339.01
1192.04	344.251
1189.27	349.487
1186.5	333.055
1183.73	392.418
1180.96	392.21
1178.19	373.078
1175.41	405.304
1172.63	421.292
1169.86	334.696
1167.08	380.379
1164.3	423.318
1161.51	436.567
1158.73	441.722
1155.94	449.564
1153.16	443.944
1150.37	441.018
1147.58	464.973
1144.79	448.608
1141.99	440.315
1139.2	445.448
1136.4	455.938
1133.61	544.154
1130.81	648.351
1128.01	645.328
1125.2	548.638
1122.4	529.622
1119.6	545.38
1116.79	470.273
1113.98	435.305
1111.17	501.802
1108.36	485.528
1105.55	514.598
1102.74	482.345
1099.92	444.799
1097.1	473.844
1094.29	476.252
1091.47	494.612
1088.64	465.112
1085.82	496.74
1083	488.51
1080.17	464.367
1077.34	461.466
1074.51	474.473
1071.68	495.414
1068.85	466.022
1066.02	574.277
1063.18	611
1060.35	528.721
1057.51	454.457
1054.67	401.398
1051.83	411.74
1048.99	395.692
1046.14	384.934
1043.3	371.552
1040.45	384.521
1037.6	392.212
1034.75	402.525
1031.9	402.309
1029.04	378.441
1026.19	351.971
1023.33	393.786
1020.48	364.713
1017.62	354.027
1014.75	380.047
1011.89	366.745
1009.03	329.893
1006.16	395.135
1003.3	410.615
1000.43	368.571
997.557	368.373
994.685	323.785
991.811	305.342
988.937	378.212
986.06	367.58
983.182	304.849
980.303	354.164
977.422	314.932
974.539	335.573
971.655	309.393
968.769	327.416
965.882	345.419
962.993	340.042
960.103	345.047
957.211	360.418
954.317	344.675
951.422	341.899
948.526	352.069
945.627	289.783
942.728	315.486
939.826	307.562
936.923	338.393
934.019	343.374
931.113	325.126
928.205	353.319
925.296	371.171
922.385	368.394
919.473	370.769
916.559	344.835
913.644	414.092
910.726	416.439
907.808	465.028
904.888	444.234
901.966	428.595
899.042	436.058
896.117	502.476
893.191	440.71
890.263	509.614
887.333	465.827
884.402	480.923
881.469	457.651
878.534	467.624
875.598	487.802
872.66	507.958
869.721	561.256
866.78	540.553
863.838	565.744
860.894	590.906
857.948	679.682
855.001	608.074
852.052	607.743
849.101	625.203
846.149	642.644
843.195	616.907
840.24	558.213
837.283	484.366
834.324	456.222
831.364	476.239
828.403	432.939
825.439	366.912
822.474	343.951
819.508	356.402
816.539	338.524
813.569	363.588
810.598	345.725
807.625	322.837
804.65	322.661
801.674	317.446
798.696	319.791
795.716	299.483
792.735	324.472
789.752	304.184
786.768	278.892
783.782	296.318
780.794	291.136
777.804	280.943
774.813	293.325
771.821	318.221
768.827	308.03
765.831	342.903
762.833	337.712
759.834	287.523
756.833	292.363
753.83	334.66
750.826	319.5
747.821	321.82
744.813	324.137
741.804	296.547
738.793	311.328
735.781	321.115
732.767	353.281
729.751	350.601
726.734	308.161
723.715	340.281
720.694	312.787
717.672	349.832
714.648	389.315
711.622	342.012
708.595	391.364
705.566	383.722
702.535	383.511
699.503	370.936
696.469	390.504
693.433	340.886
690.396	387.606
687.357	323.238
684.316	357.586
681.274	347.53
678.23	342.412
675.184	339.761
672.137	371.563
669.088	336.928
666.037	326.91
662.985	326.73
659.93	356.013
656.875	343.547
653.817	380.146
650.758	389.741
647.697	399.325
644.635	438.28
641.57	418.461
638.505	450.025
635.437	405.777
632.368	429.984
629.297	419.979
626.224	458.793
623.149	431.71
620.073	409.532
616.995	445.85
613.916	423.689
610.835	406.419
607.752	389.168
604.667	391.383
601.581	432.47
598.493	398.235
595.403	429.564
592.311	451.156
589.218	453.33
586.123	416.735
583.027	464.935
579.928	425.954
576.828	420.88
573.727	413.394
570.623	461.488
567.518	427.424
564.411	458.562
561.302	455.895
558.192	467.696
555.08	477.074
551.966	443.095
548.85	430.815
545.733	435.386
542.614	466.397
539.493	413.277
536.37	398.638
533.246	396.016
530.12	407.789
526.992	417.152
523.863	390.563
520.731	431.056
517.598	442.783
514.464	423.399
511.327	435.117
508.189	475.495
505.049	396.423
501.907	434.389
498.764	405.522
495.618	421.984
492.471	464.638
489.323	414.369
486.172	476.02
483.02	454.345
479.866	439.827
476.71	430.076
473.552	432.211
470.393	391.62
467.232	448.332
464.069	433.857
460.904	462.048
457.738	499.68
454.569	428.395
451.399	489.658
448.228	491.748
445.054	496.198
441.879	510.089
438.702	533.406
435.523	474.135
432.342	499.802
429.16	494.809
425.976	525.145
422.79	487.193
419.602	522.204
416.412	493.699
413.221	519.268
410.028	493.145
406.833	572.666
403.636	530.122
400.437	546.234
397.237	515.468
394.035	503.469
390.831	542.973
387.625	507.581
384.417	528.336
381.208	511.683
377.997	518.401
374.784	536.779
371.569	515.484
368.352	524.519
365.134	479.955
361.914	472.699
358.691	521.305
355.468	474.492
352.242	499.796
349.014	525.07
345.785	496.91
342.554	512.874
339.321	526.501
336.086	512.295
332.849	512.006
329.611	555.711
326.37	529.941
323.128	564.334
319.884	545.523
316.639	524.422
313.391	591.084
310.141	583.827
306.89	565.046
303.637	550.897
300.382	522.94
297.125	584.809
293.866	561.467
290.606	581.847
287.343	588.413
284.079	611.051
280.813	599.225
277.545	667.723
274.275	662.757
271.004	616.542
267.73	600.157
264.455	682.234
261.177	681.847
257.898	688.32
254.617	701.642
251.335	778.906
248.05	714.542
244.763	787.147
241.475	786.699
238.185	752.067
234.892	799.471
231.598	860.479
228.302	853.164
225.005	848.131
221.705	831.74
218.403	838.08
215.1	928.4
211.795	875.692
208.487	893.332
205.178	931.346
201.867	896.843
198.554	889.542
195.24	954.637
191.923	893.049
188.604	901.578
185.284	873.963
181.962	905.062
178.637	915.824
175.311	899.52
171.983	998.145
168.653	970.552
165.321	1019.51
161.988	1093.15
158.652	1065.55
155.314	1132.34
151.975	1142.92
148.634	1191.64
145.29	1278.43
141.945	1297.87
138.598	1377.78
135.249	1527
131.898	1579.83
128.545	1610.24
125.19	1716.6
121.833	1863.05
118.475	1993.71
115.114	2097.44
111.752	2290.25
108.387	2161.89
105.021	2133.92
101.652	1999.13
100.529	2036.58