File: Spicy-Raman/model_train_and_validate/Raman_Data/polyethylene/Set5Sample2_3 - 5_.txt
3201.19	25.2672
3199.41	33.6795
3197.63	8.41605
3195.84	46.2673
3194.06	12.6126
3192.28	21.0115
3190.49	21.002
3188.7	50.382
3186.92	25.1796
3185.13	20.9735
3183.34	33.5423
3181.55	16.7635
3179.76	58.6458
3177.97	16.7483
3176.18	12.5556
3174.39	50.1994
3172.59	25.0883
3170.8	16.7179
3169	29.2431
3167.21	29.2298
3165.41	45.9117
3163.61	29.2033
3161.82	25.02
3160.02	29.1768
3158.22	12.4986
3156.42	12.493
3154.61	33.2994
3152.81	29.1237
3151.01	8.31728
3149.2	29.0973
3147.4	41.5486
3145.59	33.2238
3143.79	12.4532
3141.98	12.4476
3140.17	20.7365
3138.36	12.4362
3136.55	20.7176
3134.74	16.5666
3132.93	16.559
3131.12	41.3787
3129.31	37.2239
3127.49	41.341
3125.68	45.4544
3123.86	37.173
3122.05	41.2845
3120.23	53.6454
3118.41	37.1222
3116.59	12.3684
3114.77	65.9348
3112.95	37.0714
3111.13	49.406
3109.31	24.6917
3107.48	53.4743
3105.66	32.8923
3103.84	41.0966
3102.01	61.6167
3100.18	61.5886
3098.36	28.7282
3096.53	49.2259
3094.7	24.6017
3092.87	40.9841
3091.04	57.3515
3089.21	45.0413
3087.38	36.8351
3085.54	36.8183
3083.71	40.8905
3081.87	61.3078
3080.04	40.8531
3078.2	44.9179
3076.37	73.4684
3074.53	20.3986
3072.69	40.7784
3070.85	32.6078
3069.01	40.7411
3067.17	40.7225
3065.32	20.3519
3063.48	48.8222
3061.64	52.8665
3059.79	24.3888
3057.95	69.0698
3056.1	52.7939
3054.25	36.5329
3052.4	64.9176
3050.56	28.3884
3048.71	56.7508
3046.85	40.5177
3045	28.3494
3043.15	68.817
3041.3	44.5082
3039.44	56.6208
3037.59	68.7223
3035.73	36.3657
3033.88	44.4266
3032.02	52.48
3030.16	40.3507
3028.3	52.4318
3026.44	56.4391
3024.58	64.4722
3022.72	60.415
3020.85	48.3098
3018.99	76.4553
3017.13	80.4423
3015.26	56.2837
3013.4	40.1842
3011.53	52.2154
3009.66	56.2061
3007.79	44.1416
3005.92	64.1765
3004.05	68.1562
3002.18	48.0881
3000.31	96.1319
2998.44	64.0585
2996.56	76.0344
2994.69	99.9992
2992.81	79.9625
2990.93	95.9108
2989.06	63.9111
2987.18	87.8373
2985.3	95.7784
2983.42	91.7453
2981.54	83.7289
2979.66	95.646
2977.78	95.6019
2975.89	87.5947
2974.01	119.392
2972.12	103.426
2970.24	115.306
2968.35	119.227
2966.46	135.062
2964.57	123.088
2962.68	138.906
2960.79	119.007
2958.9	146.708
2957.01	126.824
2955.12	122.804
2953.22	162.343
2951.33	130.606
2949.43	174.061
2947.54	185.843
2945.64	122.52
2943.74	161.968
2941.84	165.842
2939.94	189.446
2938.04	149.909
2936.14	169.555
2934.24	165.535
2932.33	224.551
2930.43	196.884
2928.52	188.921
2926.62	188.833
2924.71	196.61
2922.8	192.589
2920.89	180.714
2918.98	176.704
2917.07	223.721
2915.16	223.617
2913.25	219.592
2911.34	192.054
2909.42	219.389
2907.51	187.96
2905.59	215.271
2903.67	219.084
2901.76	250.265
2899.84	214.972
2897.92	203.152
2896	210.868
2894.08	222.479
2892.16	210.672
2890.23	269.067
2888.31	288.431
2886.38	253.234
2884.46	288.163
2882.53	225.752
2880.6	221.757
2878.68	209.988
2876.75	213.777
2874.82	202.023
2872.89	205.812
2870.95	225.124
2869.02	201.741
2867.09	186.136
2865.15	217.058
2863.22	209.208
2861.28	232.346
2859.34	201.272
2857.4	228.261
2855.46	274.559
2853.52	231.913
2851.58	266.576
2849.64	239.421
2847.7	185.272
2845.76	185.185
2843.81	223.661
2841.87	161.886
2839.92	134.842
2837.97	142.481
2836.02	127.018
2834.07	126.959
2832.12	130.745
2830.17	107.623
2828.22	92.2049
2826.27	126.723
2824.31	126.663
2822.36	118.931
2820.4	115.041
2818.45	130.319
2816.49	114.934
2814.53	130.197
2812.57	118.654
2810.61	122.424
2808.65	137.663
2806.69	110.843
2804.73	99.3303
2802.76	118.377
2800.8	106.871
2798.83	83.9309
2796.87	83.8917
2794.9	99.0983
2792.93	91.4326
2790.96	91.3898
2788.99	102.765
2787.02	114.13
2785.05	114.077
2783.08	106.422
2781.1	110.171
2779.13	79.7418
2777.15	94.8862
2775.17	113.81
2773.2	128.924
2771.22	102.333
2769.24	109.862
2767.26	98.4507
2765.28	105.974
2763.3	121.056
2761.31	128.562
2759.33	102.046
2757.34	132.219
2755.36	120.829
2753.37	128.321
2751.38	128.261
2749.39	109.348
2747.4	97.9898
2745.41	109.245
2743.42	71.5407
2741.43	101.615
2739.44	105.329
2737.44	135.36
2735.45	157.846
2733.45	169.041
2731.45	138.924
2729.45	176.388
2727.46	142.544
2725.46	116.231
2723.45	138.663
2721.45	157.327
2719.45	160.997
2717.45	134.725
2715.44	149.624
2713.44	138.337
2711.43	119.586
2709.42	104.589
2707.41	156.809
2705.4	126.881
2703.39	145.471
2701.38	111.848
2699.37	201.232
2697.36	134.091
2695.34	167.535
2693.33	156.293
2691.31	145.06
2689.29	144.992
2687.28	130.06
2685.26	155.998
2683.24	155.924
2681.22	170.694
2679.19	118.687
2677.17	107.51
2675.15	133.397
2673.12	133.334
2671.1	125.867
2669.07	136.909
2667.04	144.241
2665.01	140.476
2662.99	129.325
2660.95	155.116
2658.92	140.277
2656.89	147.59
2654.86	169.648
2652.82	151.137
2650.79	143.696
2648.75	132.58
2646.72	106.75
2644.68	139.813
2642.64	180.2
2640.6	143.356
2638.56	146.963
2636.51	150.565
2634.47	168.847
2632.43	205.455
2630.38	187.022
2628.34	164.942
2626.29	153.873
2624.24	164.785
2622.19	164.707
2620.14	153.654
2618.09	157.238
2616.04	186.403
2613.99	153.435
2611.94	160.665
2609.88	175.188
2607.83	175.105
2605.77	182.314
2603.71	153.071
2601.65	145.713
2599.59	189.337
2597.53	149.214
2595.47	189.157
2593.41	178.16
2591.35	185.343
2589.28	167.093
2587.22	192.428
2585.15	177.821
2583.08	188.618
2581.01	188.528
2578.94	173.944
2576.87	195.593
2574.8	137.574
2572.73	188.17
2570.66	191.697
2568.58	177.145
2566.51	169.834
2564.43	198.647
2562.35	180.502
2560.28	184.024
2558.2	180.33
2556.12	201.874
2554.04	234.206
2551.95	187.275
2549.87	201.585
2547.79	194.293
2545.7	208.585
2543.61	201.297
2541.53	179.643
2539.44	175.966
2537.35	186.651
2535.26	193.737
2533.17	200.817
2531.08	204.305
2528.98	193.46
2526.89	189.786
2524.79	200.433
2522.7	189.605
2520.6	210.969
2518.5	196.572
2516.4	214.339
2514.3	221.378
2512.2	210.566
2510.1	203.33
2508	238.888
2505.89	178.189
2503.79	249.346
2501.68	199.381
2499.57	238.431
2497.47	227.646
2495.36	223.982
2493.25	188.339
2491.14	206.008
2489.02	223.66
2486.91	227.101
2484.8	191.525
2482.68	223.338
2480.56	230.318
2478.45	230.208
2476.33	258.417
2474.21	183.989
2472.09	229.877
2469.97	240.371
2467.85	233.189
2465.72	264.86
2463.6	222.376
2461.47	271.662
2459.35	253.9
2457.22	239.679
2455.09	225.472
2452.96	218.321
2450.83	246.373
2448.7	270.88
2446.57	235.587
2444.43	284.678
2442.3	295.079
2440.16	224.714
2438.02	294.796
2435.89	266.591
2433.75	248.933
2431.61	231.291
2429.47	283.72
2427.33	231.068
2425.18	265.95
2423.04	241.339
2420.89	279.678
2418.75	241.106
2416.6	275.916
2414.45	314.183
2412.3	272.161
2410.15	261.567
2408	275.384
2405.85	292.672
2403.7	250.741
2401.54	295.871
2399.39	274.853
2397.23	309.495
2395.07	243.306
2392.91	264.033
2390.75	250.016
2388.59	274.19
2386.43	291.403
2384.27	260.056
2382.11	294.587
2379.94	273.661
2377.78	249.292
2375.61	321.846
2373.44	280.182
2371.27	286.961
2369.1	311.012
2366.93	314.316
2364.76	307.259
2362.59	320.913
2360.41	282.819
2358.24	337.839
2356.06	296.328
2353.88	285.852
2351.7	289.156
2349.53	295.897
2347.34	330.144
2345.16	312.797
2342.98	316.081
2340.8	333.098
2338.61	302.045
2336.43	312.191
2334.24	342.9
2332.05	308.461
2329.86	356.271
2327.67	332.129
2325.48	318.279
2323.29	321.545
2321.1	314.551
2318.9	307.563
2316.71	351.818
2314.51	310.679
2312.31	310.528
2310.11	320.609
2307.91	381.817
2305.71	330.52
2303.51	337.17
2301.31	367.643
2299.1	330.038
2296.9	340.079
2294.69	336.515
2292.49	360.133
2290.28	326
2288.07	386.936
2285.86	352.823
2283.65	352.651
2281.43	382.982
2279.22	406.508
2277.01	365.679
2274.79	395.96
2272.57	372.088
2270.36	331.335
2268.14	348.07
2265.92	371.544
2263.7	391.619
2261.47	388.054
2259.25	347.392
2257.03	384.304
2254.8	326.836
2252.57	367.09
2250.35	400.572
2248.12	336.451
2245.89	383.367
2243.66	376.457
2241.42	346.037
2239.19	413.026
2236.96	375.905
2234.72	375.721
2232.48	375.538
2230.25	385.408
2228.01	418.717
2225.77	401.772
2223.53	384.843
2221.29	354.551
2219.04	391.153
2216.8	380.936
2214.55	397.449
2212.31	433.976
2210.06	430.427
2207.81	430.216
2205.56	453.339
2203.31	416.467
2201.06	406.273
2198.81	452.672
2196.55	432.489
2194.3	415.651
2192.04	405.476
2189.78	408.599
2187.53	438.282
2185.27	444.704
2183	417.949
2180.74	444.267
2178.48	453.991
2176.22	496.826
2173.95	496.582
2171.68	479.793
2169.42	453.099
2167.15	419.82
2164.88	482.39
2162.61	452.431
2160.34	518.225
2158.06	432.191
2155.79	455.062
2153.51	441.654
2151.24	441.437
2148.96	464.268
2146.68	529.861
2144.4	509.863
2142.12	450.431
2139.84	443.637
2137.56	463.126
2135.27	502.294
2132.99	505.327
2130.7	511.638
2128.41	485.161
2126.13	478.368
2123.84	484.682
2121.54	533.542
2119.25	500.562
2116.96	483.965
2114.67	486.995
2112.37	437.752
2110.07	502.84
2107.78	509.119
2105.48	495.82
2103.18	453.19
2100.88	534.435
2098.57	511.371
2096.27	511.118
2093.97	491.342
2091.66	507.36
2089.35	497.357
2087.04	519.855
2084.74	500.113
2082.43	532.324
2080.11	522.328
2077.8	499.371
2075.49	502.365
2073.17	492.398
2070.86	621.668
2068.54	491.91
2066.22	501.37
2063.9	552.851
2061.58	578.428
2059.26	565.222
2056.94	568.17
2054.61	554.982
2052.29	612.757
2049.96	541.538
2047.63	573.487
2045.31	560.322
2042.98	563.262
2040.64	550.115
2038.31	540.195
2035.98	562.424
2033.64	581.418
2031.31	613.236
2028.97	616.14
2026.63	580.552
2024.3	557.822
2021.96	554.34
2019.61	630.929
2017.27	627.414
2014.93	617.504
2012.58	633.186
2010.24	629.675
2007.89	584.635
2005.54	613.083
2003.19	625.543
2000.84	574.193
1998.49	618.544
1996.14	586.368
1993.78	624.298
1991.43	620.803
1989.07	655.496
1986.71	597.922
1984.35	635.77
1981.99	660.871
1979.63	644.663
1977.27	657.037
1974.91	694.78
1972.54	684.92
1970.17	624.361
1967.81	719.082
1965.44	652.233
1963.07	686.718
1960.7	686.375
1958.33	708.162
1955.95	676.21
1953.58	628.498
1951.2	691.317
1948.83	725.678
1946.45	703.24
1944.07	655.609
1941.69	658.431
1939.31	727.376
1936.93	701.834
1934.54	717.211
1932.16	745.149
1929.77	744.776
1927.38	694.148
1924.99	728.333
1922.6	775.035
1920.21	705.65
1917.82	752.316
1915.43	736.273
1913.03	739.036
1910.64	776.224
1908.24	760.193
1905.84	756.685
1903.44	715.677
1901.04	740.307
1898.64	774.279
1896.24	795.734
1893.83	776.62
1891.43	745.057
1889.02	869.315
1886.61	750.537
1884.2	728.371
1881.79	756.005
1879.38	758.734
1876.97	817.405
1874.56	816.994
1872.14	782.429
1869.72	850.308
1867.31	800.253
1864.89	846.353
1862.47	811.842
1860.05	836.21
1857.62	752.21
1855.2	801.334
1852.78	841.132
1850.35	825.254
1847.92	849.552
1845.49	861.475
1843.06	876.471
1840.63	909.96
1838.2	860.172
1835.77	847.412
1833.33	902.424
1830.9	852.714
1828.46	919.974
1826.02	870.305
1823.58	915.972
1821.14	872.499
1818.7	884.341
1816.25	902.308
1813.81	907.987
1811.36	941.254
1808.92	907.07
1806.47	894.36
1804.02	912.275
1801.57	973.01
1799.12	954.168
1796.66	959.799
1794.21	965.423
1791.75	940.506
1789.3	940.03
1786.84	963.958
1784.38	926.882
1781.92	923.365
1779.46	968.585
1776.99	922.43
1774.53	934.133
1772.06	961.031
1769.6	981.822
1767.13	1005.63
1764.66	1020.3
1762.19	995.504
1759.72	982.865
1757.24	942.95
1754.77	1039.45
1752.29	1048
1749.82	1032.34
1747.34	1010.63
1744.86	1022.21
1742.38	1048.9
1739.9	1075.56
1737.41	1087.09
1734.93	1005.05
1732.44	1034.7
1729.95	1094.48
1727.47	1072.83
1724.98	1084.33
1722.49	1047.65
1719.99	1071.19
1717.5	1034.55
1715.01	1106.17
1712.51	1078.57
1710.01	1123.06
1707.51	1230.53
1705.01	1139.91
1702.51	1193.3
1700.01	1093.8
1697.51	1201.07
1695	1164.53
1692.5	1172.92
1689.99	1106.53
1687.48	1219.55
1684.97	1174.11
1682.46	1128.72
1679.95	1217.68
1677.43	1178.28
1674.92	1207.49
1672.4	1251.57
1669.88	1286.68
1667.36	1297.93
1664.84	1300.24
1662.32	1263.89
1659.8	1260.27
1657.28	1235.86
1654.75	1327.27
1652.22	1350.34
1649.7	1290.32
1647.17	1248.15
1644.64	1208.99
1642.1	1208.37
1639.57	1278.8
1637.04	1304.77
1634.5	1336.63
1631.96	1247.28
1629.42	1276.18
1626.88	1308
1624.34	1310.28
1621.8	1286.02
1619.26	1362.01
1616.71	1378.99
1614.17	1401.84
1611.62	1336.36
1609.07	1353.33
1606.52	1452.61
1603.97	1381.33
1601.42	1392.37
1598.86	1376.97
1596.31	1335.18
1593.75	1399.02
1591.19	1354.33
1588.63	1333.13
1586.07	1350.01
1583.51	1346.39
1580.95	1398.35
1578.38	1388.86
1575.82	1259.56
1573.25	1323.17
1570.68	1337.09
1568.11	1339.32
1565.54	1420.29
1562.97	1387.49
1560.39	1273.15
1557.82	1386.06
1555.24	1362.07
1552.66	1271.19
1550.08	1383.92
1547.5	1284.41
1544.92	1365.07
1542.34	1419.52
1539.75	1410.08
1537.17	1406.45
1534.58	1362.25
1531.99	1465.84
1529.4	1398.48
1526.81	1432.49
1524.22	1420.18
1521.62	1326.93
1519.03	1386.93
1516.43	1386.21
1513.83	1423.02
1511.24	1433.82
1508.64	1424.43
1506.03	1440.98
1503.43	1371.11
1500.83	1384.79
1498.22	1461.77
1495.61	1409.24
1493	1477.5
1490.39	1450.88
1487.78	1467.35
1485.17	1446.5
1482.55	1477.31
1479.94	1594.09
1477.32	1576.07
1474.7	1612.49
1472.09	1554.4
1469.46	1753.87
1466.84	1650.01
1464.22	1766.34
1461.59	1731.14
1458.97	1650.3
1456.34	1732.2
1453.71	1839.69
1451.08	1833.03
1448.45	1814.98
1445.81	1734.3
1443.18	1898.48
1440.54	1891.8
1437.91	1842.48
1435.27	1827.32
1432.63	1726.95
1429.99	1677.79
1427.34	1710.97
1424.7	1741.27
1422.05	1726.19
1419.41	1609.14
1416.76	1698.91
1414.11	1709.35
1411.46	1731.08
1408.81	1667.99
1406.15	1715.15
1403.5	1700.14
1400.84	1654.09
1398.18	1633.47
1395.52	1604.43
1392.86	1648.68
1390.2	1757.67
1387.54	1798.99
1384.87	1772.72
1382.21	1718.36
1379.54	1866.44
1376.87	1910.42
1374.2	1794.29
1371.53	1905.61
1368.85	1876.57
1366.18	1802.69
1363.5	1768.12
1360.82	1812.01
1358.15	1771.87
1355.47	1826.9
1352.78	1828.74
1350.1	1880.88
1347.42	1877.1
1344.73	1940.33
1342.04	1908.62
1339.35	1913.2
1336.66	1909.41
1333.97	1886.12
1331.28	1921.33
1328.58	1956.5
1325.89	1821.96
1323.19	1909.97
1320.49	1858.95
1317.79	1905.18
1315.09	1931.94
1312.39	1966.99
1309.68	1904.96
1306.98	1923.36
1304.27	1930.66
1301.56	1946.25
1298.85	1967.37
1296.14	1946.97
1293.43	2050.98
1290.71	2008.47
1288	1963.23
1285.28	1984.27
1282.56	2049.43
1279.84	1927.05
1277.12	1989.41
1274.4	1941.54
1271.67	1824.92
1268.95	1837.71
1266.22	1803.75
1263.49	1731.34
1260.76	1840.3
1258.03	1729.52
1255.3	1772.51
1252.56	1708.5
1249.83	1781.6
1247.09	1624.51
1244.35	1719.48
1241.61	1776.04
1238.87	1723.14
1236.13	1724.96
1233.38	1691.26
1230.64	1676.71
1227.89	1629.43
1225.14	1546.73
1222.39	1714.95
1219.64	1697.7
1216.89	1647.77
1214.13	1668.68
1211.37	1692.28
1208.62	1680.51
1205.86	1761.16
1203.1	1695.03
1200.34	1732.14
1197.57	1671.53
1194.81	1695.05
1192.04	1699.57
1189.27	1668.87
1186.5	1605.71
1183.73	1548.02
1180.96	1671.63
1178.19	1784.28
1175.41	1707.68
1172.63	1712.18
1169.86	1703.17
1167.08	1672.59
1164.3	1736.41
1161.51	1789.39
1158.73	1799.21
1155.94	1725.57
1153.16	1762.32
1150.37	1807.1
1147.58	1811.51
1144.79	1767.57
1141.99	1761.26
1139.2	1792.52
1136.4	1906.9
1133.61	1911.24
1130.81	1950.41
1128.01	2008.28
1125.2	2058.06
1122.4	1891.12
1119.6	1981.01
1116.79	1843.68
1113.98	1805.31
1111.17	1839.05
1108.36	1803.39
1105.55	1813.09
1102.74	1804.13
1099.92	1978.96
1097.1	1937.97
1094.29	1936.93
1091.47	1933.24
1088.64	1860.45
1085.82	1939.14
1083	1855.81
1080.17	1913.19
1077.34	1901.56
1074.51	1834.28
1071.68	1822.7
1068.85	1890.57
1066.02	1921.31
1063.18	1970.54
1060.35	1866.38
1057.51	1899.73
1054.67	1840.62
1051.83	1866.03
1048.99	1836.01
1046.14	1779.66
1043.3	1826.14
1040.45	1917.34
1037.6	1905.78
1034.75	1812.68
1031.9	1887.96
1029.04	1784.45
1026.19	1770.36
1023.33	1764.16
1020.48	1831.43
1017.62	1728.18
1014.75	1777.05
1011.89	1747.28
1009.03	1869.39
1006.16	1855.3
1003.3	1867.38
1000.43	1808.87
997.557	1857.54
994.685	1822.59
991.811	1829.44
988.937	1784.12
986.06	1749.27
983.182	1829.1
980.303	1752.59
977.422	1696.99
974.539	1859.96
971.655	1819.96
968.769	1860.55
965.882	1786.83
962.993	1822.21
960.103	1800.47
957.211	1825.43
954.317	1808.89
951.422	1784.61
948.526	1882.02
945.627	1811.14
942.728	1859.3
939.826	1837.62
936.923	1813.37
934.019	1820.14
931.113	1803.67
928.205	1797.54
925.296	1835.23
922.385	1870.31
919.473	1828.1
916.559	1881.15
913.644	1949.58
910.726	1891.97
907.808	1875.53
904.888	1992.63
901.966	1971.02
899.042	1954.56
896.117	1933
893.191	1893.51
890.263	1956.51
887.333	1945.21
884.402	2043.92
881.469	2032.59
878.534	2003.37
875.598	1925.67
872.66	2087.99
869.721	2056.24
866.78	2131.62
863.838	2102.43
860.894	2037.61
857.948	2117.96
855.001	2071.01
852.052	2191.94
849.101	2206
846.149	2062.56
843.195	2188.37
840.24	2128.82
837.283	2033.83
834.324	1992.17
831.364	1996.15
828.403	1969.75
825.439	1973.74
822.474	2015.65
819.508	1991.81
816.539	2008.4
813.569	1949.24
810.598	1885.08
807.625	1873.97
804.65	1956.13
801.674	1942.47
798.696	1966.59
795.716	1935.31
792.735	2007.2
789.752	1905.55
786.768	1876.87
783.782	2016.47
780.794	1977.72
777.804	2006.74
774.813	1975.56
771.821	1979.49
768.827	2000.94
765.831	1922.26
762.833	2036.28
759.834	1987.66
756.833	2079.03
753.83	2050.42
750.826	2061.77
747.821	2045.68
744.813	1989.7
741.804	2105.73
738.793	2089.64
735.781	2061.11
732.767	2064.95
729.751	2001.66
726.734	2020.44
723.715	2051.62
720.694	2105.11
717.672	2061.77
714.648	2068.08
711.622	2099.16
708.595	2073.24
705.566	2096.86
702.535	2098.18
699.503	2116.81
696.469	2098.34
693.433	2062.61
690.396	2068.88
687.357	2151.63
684.316	2091.26
681.274	2099.97
678.23	2150.54
675.184	2178.9
672.137	2209.69
669.088	2154.37
666.037	2084.36
662.985	2166.74
659.93	2138.53
656.875	2080.91
653.817	2241.63
650.758	2088.42
647.697	2190.16
644.635	2157.12
641.57	2124.12
638.505	2303.93
635.437	2224.44
632.368	2296.5
629.297	2248.84
626.224	2293.97
623.149	2297.57
620.073	2208.55
616.995	2314.52
613.916	2252.37
610.835	2350.9
607.752	2271.77
604.667	2258.35
601.581	2300.84
598.493	2355.41
595.403	2434.19
592.311	2301.87
589.218	2361.19
586.123	2367.15
583.027	2302.88
579.928	2318.55
576.828	2387.41
573.727	2296.63
570.623	2300.19
567.518	2318.23
564.411	2360.39
561.302	2438.68
558.192	2328.84
555.08	2438.38
551.966	2287.72
548.85	2346.62
545.733	2460.77
542.614	2356.03
539.493	2347.51
536.37	2468.67
533.246	2395.3
530.12	2401.16
526.992	2488.53
523.863	2396.09
520.731	2425.89
517.598	2486.76
514.464	2437.54
511.327	2469.65
508.189	2506.5
505.049	2435.85
501.907	2398.69
498.764	2418.82
495.618	2388.86
492.471	2478.07
489.323	2410.01
486.172	2368.2
483.02	2423.97
479.866	2451.14
476.71	2402.25
473.552	2467.4
470.393	2485.01
467.232	2414.83
464.069	2527.28
460.904	2530.6
457.738	2609.7
454.569	2568
451.399	2540.55
448.228	2574.59
445.054	2587.32
441.879	2505.58
438.702	2683.55
435.523	2601.84
432.342	2701.76
429.16	2686.11
425.976	2665.76
422.79	2556
419.602	2571.03
416.412	2635.41
413.221	2565.8
410.028	2592.53
406.833	2607.51
403.636	2699.87
400.437	2738.2
397.237	2696.83
394.035	2718.73
390.831	2686.78
387.625	2577.67
384.417	2629.99
381.208	2775.71
377.997	2825.52
374.784	2707.23
371.569	2703.38
368.352	2750.81
365.134	2667.71
361.914	2689.5
358.691	2713.58
355.468	2739.96
352.242	2712.84
349.014	2678.79
345.785	2809.63
342.554	2666.48
339.321	2734.56
336.086	2767.79
332.849	2768.54
329.611	2644.26
326.37	2749.21
323.128	2671.34
319.884	2799.27
316.639	2723.76
313.391	2754.55
310.141	2812.99
306.89	2751.43
303.637	2839.77
300.382	2739.1
297.125	2670.78
293.866	2922.39
290.606	2755.15
287.343	2762.78
284.079	2830.13
280.813	2773.42
277.545	2856.75
274.275	2850.54
271.004	2837.47
267.73	2842.73
264.455	2834.25
261.177	2805.18
257.898	2906.49
254.617	2950.55
251.335	2939.74
248.05	2924.37
244.763	2931.84
241.475	2909.65
238.185	2992.32
234.892	2970.11
231.598	2993.46
228.302	2943.98
225.005	2980.96
221.705	3074.71
218.403	3029.81
215.1	3082.56
211.795	3148.86
208.487	3067.71
205.178	3090.89
201.867	3061.95
198.554	3157.53
195.24	3167.04
191.923	3110.98
188.604	3068.53
185.284	3066.78
181.962	3074.05
178.637	3135.46
175.311	3144.94
171.983	3140.89
168.653	3294.47
165.321	3272.33
161.988	3243.47
158.652	3248.36
155.314	3340.86
151.975	3368.14
148.634	3420.08
145.29	3505.59
141.945	3465.47
138.598	3548.62
135.249	3582.41
131.898	3656.44
128.545	3795.24
125.19	3857.89
121.833	3902.59
118.475	4016.44
115.114	4052.07
111.752	4196.93
108.387	4000.62
105.021	3764.44
101.652	3421.67
100.529	3300.82