File: Spicy-Raman/model_train_and_validate/Raman_Data/polyethylene/Set7Sample6_1 - 5_.txt
3201.15	12.6335
3199.37	0
3197.59	16.832
3195.81	12.6182
3194.03	29.4292
3192.24	25.2136
3190.46	16.8015
3188.67	0
3186.88	16.7862
3185.09	20.9733
3183.31	16.771
3181.52	25.1451
3179.73	16.7558
3177.94	0
3176.14	25.1109
3174.35	12.5497
3172.56	12.544
3170.76	8.3589
3168.97	20.8878
3167.17	12.527
3165.38	25.0425
3163.58	4.17186
3161.78	8.33993
3159.98	20.8404
3158.18	12.4985
3156.38	37.4785
3154.58	20.8119
3152.78	20.8025
3150.97	20.793
3149.17	20.7836
3147.36	8.30965
3145.56	24.9176
3143.75	29.0573
3141.94	-8.29831
3140.14	16.5891
3138.33	12.4361
3136.52	12.4305
3134.71	28.9912
3132.9	20.6986
3131.08	12.4135
3129.27	24.8157
3127.46	20.6703
3125.64	4.13218
3123.83	0
3122.01	0
3120.19	0
3118.37	45.3712
3116.56	28.8594
3114.74	20.6044
3112.92	8.23802
3111.09	37.0542
3109.27	0
3107.45	24.6802
3105.62	20.5575
3103.8	36.9866
3101.97	-8.21549
3100.15	24.6352
3098.32	32.832
3096.49	20.5106
3094.66	12.3007
3092.83	4.09837
3091	32.772
3089.17	20.4731
3087.34	12.2783
3085.51	24.5453
3083.67	0
3081.84	24.5229
3080	12.2558
3078.17	0
3076.33	12.2446
3074.49	8.15935
3072.65	4.07781
3070.81	8.15188
3068.97	8.14815
3067.13	12.2166
3065.29	28.4924
3063.44	0
3061.6	16.2665
3059.76	32.5181
3057.91	12.1887
3056.06	16.2441
3054.22	16.2367
3052.37	4.05731
3050.52	8.11091
3048.67	0
3046.82	36.4656
3044.97	12.1496
3043.11	40.4802
3041.26	28.3231
3039.41	20.2215
3037.55	8.0849
3035.7	8.08119
3033.84	16.155
3031.98	8.07378
3030.12	24.2102
3028.26	32.2655
3026.4	8.06266
3024.54	20.1474
3022.68	32.221
3020.82	12.0773
3018.95	24.1436
3017.09	12.0662
3015.22	40.2023
3013.36	12.0551
3011.49	32.1323
3009.62	40.1469
3007.76	24.077
3005.89	4.01099
3004.02	20.0457
3002.14	36.0657
3000.27	4.00546
2998.4	32.0289
2996.52	24.0106
2994.65	27.9995
2992.77	39.9809
2990.9	43.9587
2989.02	43.9385
2987.14	43.9183
2985.26	39.9073
2983.38	47.8667
2981.5	39.8705
2979.62	55.793
2977.74	67.7174
2975.86	55.7416
2973.97	51.7362
2972.09	47.7344
2970.2	23.8562
2968.31	51.6646
2966.43	31.7789
2964.54	71.4696
2962.65	67.4679
2960.76	35.7018
2958.87	83.2658
2956.97	67.3745
2955.08	47.5365
2953.19	87.11
2951.29	31.6617
2949.4	59.3383
2947.5	90.9434
2945.6	59.2835
2943.7	59.2561
2941.8	63.1773
2939.9	59.2013
2938	71.0087
2936.1	78.8621
2934.2	63.0605
2932.3	63.0313
2930.39	70.8774
2928.49	82.6521
2926.58	78.6798
2924.67	58.9825
2922.77	58.9552
2920.86	62.8565
2918.95	51.0472
2917.04	54.9485
2915.12	19.6154
2913.21	50.9763
2911.3	54.8721
2909.38	31.341
2907.47	70.4845
2905.55	62.6238
2903.64	66.507
2901.72	43.014
2899.8	62.5367
2897.88	39.0673
2895.96	35.1443
2894.04	35.128
2892.12	54.6182
2890.19	66.2913
2888.27	50.6698
2886.35	70.1256
2884.42	58.4109
2882.49	54.4915
2880.57	31.1235
2878.64	62.2181
2876.71	46.6419
2874.78	54.3903
2872.85	54.365
2870.92	38.8141
2868.98	50.4348
2867.05	38.778
2865.11	42.636
2863.18	61.9871
2861.24	23.2343
2859.3	42.5765
2857.37	11.6064
2855.43	15.4679
2853.49	19.3259
2851.55	23.1803
2849.6	50.2006
2847.66	38.5979
2845.72	23.1479
2843.77	42.4181
2841.83	19.272
2839.88	34.6734
2837.93	46.2097
2835.99	15.396
2834.04	34.6249
2832.09	0
2830.13	7.68725
2828.18	34.5765
2826.23	23.0402
2824.28	34.5442
2822.32	7.67292
2820.37	11.504
2818.41	0
2816.45	30.6487
2814.49	15.3172
2812.53	38.2751
2810.57	19.1286
2808.61	11.4718
2806.65	22.9329
2804.69	7.64072
2802.73	7.63715
2800.76	11.4504
2798.79	19.075
2796.83	3.81322
2794.86	22.8686
2792.89	30.4773
2790.92	34.2709
2788.95	15.2244
2786.98	15.2172
2785.01	22.8152
2783.04	30.406
2781.06	15.1959
2779.09	-3.79719
2777.11	26.5679
2775.14	34.1427
2773.16	3.79186
2771.18	15.1603
2769.2	34.0947
2767.22	7.57306
2765.24	15.139
2763.26	30.2638
2761.27	26.4684
2759.29	37.7943
2757.3	18.8883
2755.32	15.1035
2753.33	18.8706
2751.34	22.6341
2749.35	15.0823
2747.36	18.844
2745.37	22.6022
2743.38	33.8874
2741.39	18.8175
2739.4	52.6642
2737.4	30.0797
2735.41	18.791
2733.41	33.8078
2731.41	45.0559
2729.42	22.5174
2727.42	18.7557
2725.42	41.243
2723.41	14.9904
2721.41	29.9667
2719.41	22.4645
2717.41	29.9385
2715.4	18.7028
2713.4	14.9552
2711.39	22.4222
2709.38	22.4117
2707.37	14.9341
2705.36	29.8541
2703.35	33.57
2701.34	22.3695
2699.33	18.6324
2697.32	26.0731
2695.3	37.2297
2693.29	22.3273
2691.27	18.5973
2689.25	11.1531
2687.24	22.2957
2685.22	7.4284
2683.2	14.8498
2681.18	18.5535
2679.15	29.6716
2677.13	3.70719
2675.11	11.1163
2673.08	14.8148
2671.06	33.3175
2669.03	18.501
2667	22.1907
2664.97	18.4835
2662.95	29.5596
2660.92	29.5457
2658.88	25.8402
2656.85	7.37943
2654.82	3.68797
2652.78	7.37245
2650.75	0
2648.71	14.731
2646.68	14.724
2644.64	40.4718
2642.6	25.7426
2640.56	44.1093
2638.52	33.0663
2636.47	14.6892
2634.43	18.3528
2632.39	25.6817
2630.34	22.0024
2628.3	14.6613
2626.25	18.318
2624.2	25.633
2622.15	18.3006
2620.1	47.5591
2618.05	14.6266
2616	36.5492
2613.95	18.2659
2611.9	29.2116
2609.84	32.8475
2607.78	7.29597
2605.73	21.8775
2603.67	25.5117
2601.61	3.64279
2599.55	14.5642
2597.49	18.1967
2595.43	25.4632
2593.37	10.9076
2591.3	18.1707
2589.24	25.4269
2587.17	29.0455
2585.11	14.5159
2583.04	25.3907
2580.97	3.62551
2578.9	14.4952
2576.83	14.4883
2574.76	14.4814
2572.69	25.3303
2570.62	14.4676
2568.54	18.0759
2566.47	7.2269
2564.39	28.8938
2562.31	25.2701
2560.24	21.6497
2558.16	21.6394
2556.08	14.4194
2553.99	10.8094
2551.91	21.6085
2549.83	21.5982
2547.75	7.19596
2545.66	14.3851
2543.57	25.1618
2541.49	21.557
2539.4	17.9556
2537.31	17.947
2535.22	14.3508
2533.13	10.7579
2531.04	14.3371
2528.94	21.4953
2526.85	35.8084
2524.75	32.2122
2522.66	-3.57742
2520.56	25.03
2518.46	7.148
2516.36	7.14458
2514.26	28.5647
2512.16	14.2755
2510.06	21.403
2507.96	24.9582
2505.85	35.6376
2503.75	10.6861
2501.64	32.0431
2499.53	49.821
2497.43	14.2277
2495.32	35.5523
2493.21	28.4282
2491.09	28.4146
2488.98	21.3007
2486.87	7.09685
2484.75	28.3738
2482.64	28.3602
2480.52	24.8033
2478.41	0
2476.29	35.3992
2474.17	31.844
2472.05	17.6826
2469.93	21.209
2467.8	42.3976
2465.68	31.7829
2463.56	35.2974
2461.43	14.1122
2459.3	21.1581
2457.18	3.52466
2455.05	21.1378
2452.92	49.2978
2450.79	14.0783
2448.66	28.1431
2446.52	28.1296
2444.39	24.6015
2442.25	24.5897
2440.12	31.6001
2437.98	45.6227
2435.84	42.093
2433.71	31.5545
2431.57	17.5219
2429.43	31.5242
2427.28	24.507
2425.14	31.4938
2423	41.9715
2420.85	38.4554
2418.71	31.4483
2416.56	55.8812
2414.41	6.98178
2412.26	27.9137
2410.11	17.4376
2407.96	31.3726
2405.81	27.8733
2403.65	24.3774
2401.5	6.9616
2399.34	24.3539
2397.19	6.95488
2395.03	41.7092
2392.87	34.7409
2390.71	31.2517
2388.55	27.7658
2386.39	31.2215
2384.23	24.2716
2382.06	24.2599
2379.9	6.92805
2377.73	24.2365
2375.57	27.6854
2373.4	44.9671
2371.23	24.2013
2369.06	34.5566
2366.89	31.0859
2364.72	27.6185
2362.54	41.4077
2360.37	13.7959
2358.19	37.9204
2356.02	31.0107
2353.84	27.5517
2351.66	34.423
2349.48	30.9657
2347.3	30.9507
2345.12	20.6238
2342.94	20.6138
2340.75	30.9057
2338.57	30.8907
2336.38	-3.43064
2334.2	34.2897
2332.01	47.9823
2329.82	27.4052
2327.63	23.9679
2325.44	20.5339
2323.25	27.3653
2321.05	27.352
2318.86	41.0081
2316.66	27.3254
2314.47	23.8981
2312.27	40.9483
2310.07	34.107
2307.87	30.6814
2305.67	40.8886
2303.47	17.0286
2301.27	37.4448
2299.06	27.2193
2296.86	30.6069
2294.65	33.9911
2292.44	37.372
2290.23	20.3748
2288.03	23.759
2285.81	47.4949
2283.6	10.1725
2281.39	54.227
2279.18	44.038
2276.96	6.77178
2274.75	27.0739
2272.53	43.9736
2270.31	27.0475
2268.09	40.5515
2265.87	67.5528
2263.65	50.6399
2261.43	23.6204
2259.21	30.3543
2256.98	30.3395
2254.76	33.6941
2252.53	26.9421
2250.3	30.2951
2248.07	33.6448
2245.84	23.5398
2243.61	30.2507
2241.38	36.955
2239.15	36.937
2236.91	43.6314
2234.68	30.1916
2232.44	33.5298
2230.2	6.70269
2227.96	26.7976
2225.72	23.4365
2223.48	40.1571
2221.24	30.1031
2219	60.1767
2216.75	36.7567
2214.51	43.4184
2212.26	26.7059
2210.02	30.0295
2207.77	20.0098
2205.52	33.3334
2203.27	16.6585
2201.01	49.9511
2198.76	39.9413
2196.51	39.9217
2194.25	59.8532
2192	16.6177
2189.74	36.5411
2187.48	46.484
2185.22	49.7798
2182.96	19.9022
2180.7	26.5232
2178.44	49.7065
2176.17	39.7457
2173.91	26.4841
2171.64	46.3244
2169.37	42.9944
2167.1	36.362
2164.83	39.6481
2162.56	29.7215
2160.29	29.7069
2158.02	49.4871
2155.75	32.9752
2153.47	26.3672
2151.19	42.8255
2148.92	32.9265
2146.64	23.0372
2144.36	29.6047
2142.08	32.8779
2139.8	46.0064
2137.51	49.2683
2135.23	45.9611
2132.94	52.501
2130.66	9.83909
2128.37	68.8397
2126.08	42.594
2123.79	29.4736
2121.5	26.1859
2119.21	32.7162
2116.91	26.16
2114.62	39.2207
2112.32	45.7349
2110.03	45.7123
2107.73	39.1626
2105.43	58.7149
2103.13	61.9462
2100.83	26.0697
2098.53	29.314
2096.22	45.577
2093.92	35.7928
2091.61	29.2705
2089.31	35.7574
2087	29.2416
2084.69	25.9796
2082.38	45.4419
2080.07	35.6867
2077.76	68.0954
2075.44	38.8924
2073.13	32.3943
2070.81	64.7565
2068.49	32.3622
2066.18	35.5808
2063.86	45.2622
2061.54	42.0083
2059.21	67.826
2056.89	32.2821
2054.57	41.9459
2052.24	48.3751
2049.92	45.1277
2047.59	35.4399
2045.26	41.8627
2042.93	32.1861
2040.6	67.5573
2038.27	48.2312
2035.93	54.6349
2033.6	44.9711
2031.26	61.0019
2028.93	57.7626
2026.59	41.6967
2024.25	70.5285
2021.91	67.2892
2019.57	44.8372
2017.23	51.217
2014.88	67.1889
2012.54	57.5618
2010.19	51.1406
2007.84	51.1152
2005.5	63.8621
2003.15	22.3406
2000.79	70.1784
1998.44	38.2601
1996.09	66.9218
1993.74	28.6665
1991.38	47.7536
1989.02	82.7317
1986.67	50.8864
1984.31	38.1458
1981.95	66.7219
1979.59	76.2155
1977.22	63.4813
1974.86	50.7597
1972.49	69.7597
1970.13	76.0635
1967.76	63.3546
1965.39	88.6522
1963.02	47.4685
1960.65	63.2597
1958.28	44.2597
1955.91	63.1965
1953.53	60.0067
1951.16	75.7601
1948.78	69.412
1946.4	81.9913
1944.02	78.7984
1941.64	59.8568
1939.26	81.8684
1936.88	62.9441
1934.49	88.0777
1932.11	69.1692
1929.72	56.5647
1927.34	69.1
1924.95	47.09
1922.56	100.408
1920.17	100.358
1917.77	72.0962
1915.38	103.391
1912.99	75.1554
1910.59	81.3775
1908.19	78.2084
1905.8	96.9298
1903.4	109.382
1901	99.9561
1898.59	87.4177
1896.19	106.097
1893.79	93.5678
1891.38	90.4035
1888.97	77.8949
1886.57	93.4269
1884.16	87.1546
1881.75	102.666
1879.33	83.9575
1876.92	105.671
1874.51	105.618
1872.09	93.1454
1869.68	102.408
1867.26	108.56
1864.84	117.806
1862.42	86.7609
1860	111.494
1857.58	111.437
1855.15	92.8177
1852.73	108.233
1850.3	98.9058
1847.87	111.213
1845.45	101.894
1843.02	111.101
1840.58	95.622
1838.15	98.6568
1835.72	110.933
1833.28	101.637
1830.85	129.291
1828.41	141.533
1825.97	129.161
1823.53	98.3584
1821.09	113.669
1818.65	107.471
1816.21	104.348
1813.76	144.172
1811.32	98.1102
1808.87	128.705
1806.42	134.765
1803.97	146.942
1801.52	134.629
1799.07	152.91
1796.62	113.096
1794.16	100.819
1791.71	109.928
1789.25	134.289
1786.79	137.271
1784.33	112.81
1781.87	140.179
1779.41	127.925
1776.94	146.126
1774.48	121.71
1772.01	145.978
1769.55	158.063
1767.08	142.792
1764.61	163.975
1762.14	112.297
1759.67	154.709
1757.19	133.406
1754.72	169.704
1752.24	169.618
1749.77	157.422
1747.29	172.471
1744.81	151.214
1742.33	126.955
1739.85	190.336
1737.36	187.219
1734.88	184.106
1732.39	162.896
1729.91	180.904
1727.42	186.839
1724.93	150.6
1722.44	129.45
1719.94	126.375
1717.45	165.407
1714.96	150.293
1712.46	174.251
1709.96	150.14
1707.46	156.066
1704.96	164.986
1702.46	185.889
1699.96	179.801
1697.46	179.71
1694.95	161.656
1692.45	179.526
1689.94	173.454
1687.43	176.354
1684.92	212.114
1682.41	250.824
1679.9	191.007
1677.38	235.653
1674.87	217.644
1672.35	259.252
1669.83	220.401
1667.31	244.103
1664.79	264.805
1662.27	273.591
1659.75	252.645
1657.23	231.721
1654.7	249.418
1652.17	225.548
1649.65	255.095
1647.12	278.682
1644.59	251.871
1642.05	245.819
1639.52	287.135
1636.99	239.649
1634.45	218.827
1631.91	209.848
1629.37	209.74
1626.83	215.538
1624.29	224.281
1621.75	206.468
1619.21	200.466
1616.66	215.096
1614.12	223.821
1611.57	211.932
1609.02	217.707
1606.47	232.298
1603.92	205.728
1601.37	167.435
1598.81	184.965
1596.26	187.804
1593.7	205.305
1591.14	196.405
1588.58	181.655
1586.02	181.561
1583.46	219.518
1580.9	190.151
1578.33	175.434
1575.77	204.567
1573.2	210.304
1570.63	195.598
1568.06	189.662
1565.49	218.728
1562.92	230.275
1560.34	192.282
1557.77	209.654
1555.19	224.098
1552.61	200.712
1550.03	191.886
1547.45	194.693
1544.87	206.21
1542.29	235.132
1539.7	255.321
1537.12	205.891
1534.53	223.175
1531.94	228.853
1529.35	211.363
1526.76	199.678
1524.17	208.252
1521.57	202.363
1518.98	222.484
1516.38	231.033
1513.78	204.935
1511.18	239.448
1508.58	227.791
1505.98	230.555
1503.38	236.197
1500.77	218.801
1498.17	207.177
1495.56	238.706
1492.95	229.959
1490.34	232.713
1487.73	246.95
1485.12	249.692
1482.5	223.745
1479.89	206.427
1477.27	255.034
1474.65	280.679
1472.03	269.083
1469.41	234.61
1466.79	277.383
1464.17	311.536
1461.54	337.084
1458.92	308.357
1456.29	370.978
1453.66	313.742
1451.03	279.37
1448.4	310.566
1445.76	318.948
1443.13	304.551
1440.49	312.927
1437.86	295.704
1435.22	360.913
1432.58	329.481
1429.93	309.437
1427.29	323.463
1424.65	334.638
1422	357.14
1419.36	379.617
1416.71	373.757
1414.06	322.622
1411.41	345.082
1408.75	347.729
1406.1	327.769
1403.44	361.487
1400.79	392.348
1398.13	363.931
1395.47	383.479
1392.81	411.461
1390.15	399.979
1387.48	408.216
1384.82	444.583
1382.15	506.222
1379.49	491.903
1376.82	497.265
1374.15	511.045
1371.47	491.132
1368.8	516.121
1366.13	493.422
1363.45	423.112
1360.77	439.695
1358.09	414.272
1355.41	447.628
1352.73	422.227
1350.05	394.059
1347.36	382.679
1344.68	393.646
1341.99	404.601
1339.3	443.434
1336.61	443.201
1333.92	412.323
1331.23	420.461
1328.53	420.24
1325.84	458.962
1323.14	444.82
1320.44	405.685
1317.74	405.472
1315.04	419.138
1312.34	377.304
1309.63	343.832
1306.93	360.279
1304.22	393.329
1301.51	401.428
1298.8	478.693
1296.09	506.097
1293.38	572.169
1290.66	640.934
1287.95	654.403
1285.23	656.818
1282.51	706.122
1279.79	639.586
1277.07	529.034
1274.35	495.708
1271.62	407.367
1268.9	379.643
1266.17	404.189
1263.44	340.769
1260.71	318.615
1257.98	310.212
1255.24	304.561
1252.51	227.614
1249.77	293.276
1247.04	260.247
1244.3	301.18
1241.56	259.973
1238.82	232.484
1236.07	254.231
1233.33	221.31
1230.58	207.539
1227.84	185.595
1225.09	240.054
1222.34	215.389
1219.58	196.201
1216.83	201.544
1214.08	204.159
1211.32	193.169
1208.56	217.54
1205.8	203.835
1203.04	222.742
1200.28	192.76
1197.52	189.944
1194.75	178.995
1191.99	203.296
1189.22	173.387
1186.45	186.834
1183.68	189.441
1180.91	202.865
1178.13	221.682
1175.36	218.862
1172.58	216.045
1169.8	232.125
1167.02	242.793
1164.24	272.323
1161.46	261.399
1158.67	307.048
1155.89	298.809
1153.1	344.389
1150.31	338.828
1147.52	303.708
1144.73	346.526
1141.94	343.657
1139.14	346.157
1136.35	345.973
1133.55	356.511
1130.75	348.284
1127.95	337.388
1125.15	350.589
1122.35	409.249
1119.54	422.398
1116.73	366.061
1113.93	389.901
1111.12	354.994
1108.31	349.47
1105.49	386.611
1102.68	333.108
1099.86	303.632
1097.05	319.442
1094.23	292.666
1091.41	303.146
1088.59	252.487
1085.77	252.352
1082.94	292.041
1080.11	262.696
1077.29	291.729
1074.46	286.271
1071.63	270.223
1068.8	288.613
1065.96	256.702
1063.13	269.789
1060.29	261.714
1057.45	311.775
1054.61	274.638
1051.77	285.048
1048.93	332.378
1046.09	276.833
1043.24	245.064
1040.39	250.199
1037.54	255.33
1034.69	265.716
1031.84	220.873
1028.99	194.474
1026.13	218.01
1023.28	228.394
1020.42	204.657
1017.56	204.547
1014.7	180.848
1011.84	193.849
1008.97	172.799
1006.11	188.407
1003.24	162.152
1000.37	214.344
997.5	188.103
994.628	159.279
991.755	169.633
988.88	166.933
986.004	159.022
983.126	169.359
980.246	148.435
977.365	171.779
974.482	163.883
971.598	163.795
968.713	163.706
965.825	148.035
962.936	163.53
960.046	137.498
957.154	176.318
954.26	202.138
951.365	157.997
948.469	163.089
945.57	142.302
942.671	131.882
939.769	142.149
936.866	180.819
933.962	144.577
931.056	162.561
928.148	170.21
925.239	175.273
922.328	198.364
919.416	200.831
916.502	205.869
913.586	231.478
910.669	200.505
907.75	220.95
904.83	228.534
901.908	218.145
898.985	220.591
896.06	246.108
893.133	230.601
890.205	192.064
887.275	235.47
884.344	227.668
881.411	250.555
878.476	258.085
875.54	283.484
872.603	321.618
869.663	334.199
866.722	359.515
863.78	364.417
860.836	397.329
857.89	402.205
854.943	429.972
851.994	447.538
849.043	442.212
846.091	431.811
843.137	406.19
840.182	357.76
837.225	296.703
834.266	266.127
831.306	263.449
828.344	192.415
825.381	187.25
822.416	159.329
819.449	166.825
816.481	164.207
813.511	146.444
810.54	136.27
807.566	143.762
804.592	123.517
801.615	118.411
798.637	115.828
795.658	105.699
792.676	72.9426
789.694	103.069
786.709	90.4505
783.723	85.3788
780.735	105.41
777.746	90.3023
774.755	110.309
771.762	102.732
768.768	110.188
765.772	97.6136
762.774	112.569
759.775	105.007
756.774	142.432
753.771	139.856
750.767	129.796
747.761	142.198
744.754	137.133
741.745	137.058
738.734	132.002
735.722	164.29
732.708	131.857
729.692	151.677
726.674	168.99
723.655	193.735
720.635	153.91
717.612	196.003
714.588	200.855
711.563	166.048
708.535	210.542
705.506	210.426
702.476	215.259
699.443	215.141
696.409	207.608
693.374	202.553
690.336	190.098
687.297	202.33
684.256	192.355
681.214	172.531
678.17	169.972
675.124	172.341
672.077	209.156
669.028	191.825
665.977	191.72
662.925	186.701
659.87	193.964
656.815	198.764
653.757	228.085
650.698	237.764
647.637	200.885
644.574	254.641
641.51	254.5
638.444	239.685
635.377	259.108
632.307	283.395
629.236	280.797
626.163	244.036
623.089	290.242
620.013	263.268
616.935	297.23
613.855	260.541
610.774	248.229
607.691	231.066
604.607	250.385
601.52	221.092
598.432	254.964
595.342	223.274
592.251	225.575
589.158	244.844
586.063	220.48
582.966	237.308
579.867	258.958
576.767	253.977
573.666	227.243
570.562	246.446
567.457	280.117
564.35	311.336
561.241	284.63
558.131	241.078
555.018	257.81
551.904	219.137
548.789	252.71
545.671	233.326
542.552	259.641
539.431	218.65
536.309	220.93
533.185	225.607
530.058	239.874
526.931	201.382
523.801	230.022
520.67	227.499
517.537	208.225
514.402	186.581
511.265	196.04
508.127	207.877
504.987	217.314
501.845	212.419
498.702	217.071
495.557	205.03
492.409	193.002
489.261	204.801
486.11	211.827
482.958	202.193
479.804	192.571
476.648	213.848
473.49	199.48
470.331	201.742
467.17	211.117
464.007	234.707
460.842	284.334
457.675	281.807
454.507	265.081
451.337	283.857
448.165	278.969
444.992	245.734
441.816	281.018
438.639	269.06
435.46	264.192
432.28	240.468
429.097	247.402
425.913	275.522
422.727	275.367
419.539	256.395
416.349	263.303
413.158	256.107
409.965	234.828
406.77	312.146
403.573	290.86
400.374	304.763
397.174	288.19
393.972	281.003
390.768	285.526
387.562	276.009
384.354	280.529
381.145	259.343
377.934	280.213
374.721	301.06
371.506	272.9
368.289	305.383
365.071	281.912
361.85	274.768
358.628	239.705
355.404	225.614
352.178	258.031
348.951	276.472
345.721	273.994
342.49	252.953
339.257	241.214
336.022	264.258
332.786	315.077
329.547	263.96
326.307	280.009
323.065	272.913
319.821	288.939
316.575	328.049
313.327	288.612
310.078	290.757
306.826	302.123
303.573	244.328
300.318	292.567
297.061	315.425
293.802	326.752
290.542	319.667
287.279	330.978
284.015	351.465
280.749	305.349
277.481	371.718
274.211	350.868
270.939	350.669
267.666	371.085
264.39	377.743
261.113	407.273
257.834	407.042
254.553	443.378
251.27	456.831
247.985	474.834
244.699	456.312
241.41	424.129
238.12	524.162
234.828	539.808
231.534	548.606
228.238	571.045
224.94	532.065
221.64	554.487
218.338	572.341
215.035	587.904
211.73	578.495
208.422	612.175
205.113	654.881
201.802	591.095
198.489	631.5
195.174	617.567
191.858	560.693
188.539	598.785
185.219	553.278
181.896	580.046
178.572	609.039
175.246	547.822
171.918	610.596
168.588	626.01
165.256	643.657
161.922	677.028
158.586	726.096
155.249	736.914
151.909	792.627
148.568	884.183
145.225	939.747
141.879	1044.56
138.532	1147.02
135.183	1220.25
131.832	1335.91
128.479	1312.78
125.124	1528.83
121.767	1635.18
118.409	1757.03
115.048	1927.84
111.685	1962.41
108.321	1985.8
104.955	1942.34
101.586	1863.31
100.463	1811.76