File: Spicy-Raman/model_train_and_validate/Raman_Data/cellulose/20181203 NBay Control 7-9d_1.txt
3201.19	1553.94
3199.41	1633.45
3197.63	1725.29
3195.84	1661.42
3194.06	1698.5
3192.27	1680.92
3190.49	1650.76
3188.7	1780.16
3186.92	1775.16
3185.13	1875.03
3183.34	1777.74
3181.55	1772.75
3179.76	1776.13
3177.97	1817.19
3176.18	1715.93
3174.39	1769.53
3172.59	1752
3170.8	1751.2
3169	1762.94
3167.21	1824.78
3165.41	1790.56
3163.61	1852.32
3161.81	1797.27
3160.02	1896.49
3158.22	1816.47
3156.41	1865.62
3154.61	1977.15
3152.81	1951.29
3151.01	1929.61
3149.2	1978.61
3147.4	2027.57
3145.59	1881.3
3143.79	2050.63
3141.98	1991.61
3140.17	2061.21
3138.36	2014.67
3136.55	1984.75
3134.74	2149.51
3132.93	2053.32
3131.12	2135.14
3129.31	2134.17
3127.49	2133.2
3125.68	2140.49
3123.86	2284.07
3122.04	2142.67
3120.23	2376.9
3118.41	2342.82
3116.59	2317.02
3114.77	2241.78
3112.95	2438.48
3111.13	2420.89
3109.31	2477.4
3107.48	2377.55
3105.66	2462.81
3103.84	2465.79
3102.01	2452.35
3100.18	2574.4
3098.36	2556.81
3096.53	2563.85
3094.7	2743.09
3092.87	2700.85
3091.04	2716
3089.21	2751.62
3087.38	2787.19
3085.54	2974.1
3083.71	2690.6
3081.87	2754.76
3080.04	2945.51
3078.2	2846.16
3076.36	2881.59
3074.53	2863.96
3072.69	2980.9
3070.85	2983.62
3069.01	2978.18
3067.17	3135.63
3065.32	3036.51
3063.48	3002.57
3061.64	3163.86
3059.79	3105.5
3057.95	3225.97
3056.1	3033.62
3054.25	3223.01
3052.4	3156.62
3050.55	3325.5
3048.7	3259.12
3046.85	3334.61
3045	3442.43
3043.15	3525.86
3041.3	3471.64
3039.44	3340.63
3037.59	3456.33
3035.73	3430.5
3033.87	3525.85
3032.02	3681.68
3030.16	3623.49
3028.3	3835.59
3026.44	3664.51
3024.58	3828.04
3022.72	3713.51
3020.85	3744.01
3018.99	3854.96
3017.13	3921.56
3015.26	3951.92
3013.39	3857.68
3011.53	3924.19
3009.66	4054.87
3007.79	3928.61
3005.92	3982.95
3004.05	4185.59
3002.18	4167.64
3000.31	4161.71
2998.43	4039.69
2996.56	4245.92
2994.69	4267.97
2992.81	4305.98
2990.93	4339.97
2989.06	4425.85
2987.18	4455.75
2985.3	4493.6
2983.42	4499.51
2981.54	4561.23
2979.66	4547.17
2977.77	4720.35
2975.89	4754
2974.01	4891.1
2972.12	4904.76
2970.24	4803.09
2968.35	4876.39
2966.46	4945.64
2964.57	5022.77
2962.68	4881.55
2960.79	5006.23
2958.9	5059.43
2957.01	5112.58
2955.12	5185.49
2953.22	5155.38
2951.33	5240.07
2949.43	5300.94
2947.54	5298.49
2945.64	5323.71
2943.74	5443.71
2941.84	5532.01
2939.94	5663.65
2938.04	5420.38
2936.14	5433.65
2934.24	5565.14
2932.33	5664.99
2930.43	5693.87
2928.52	5706.98
2926.62	5633.53
2924.71	5937.63
2922.8	5891.65
2920.89	6006.78
2918.98	5921.53
2917.07	6001.21
2915.16	6006.28
2913.25	6246.62
2911.34	6063.43
2909.42	6213.4
2907.51	6265.35
2905.59	6368.12
2903.67	6435.59
2901.76	6475.62
2899.84	6296.73
2897.92	6348.5
2896	6447.08
2894.08	6479.22
2892.15	6542.54
2890.23	6504.4
2888.31	6727.45
2886.38	6778.87
2884.46	6728.99
2882.53	7048.93
2880.6	6995.08
2878.67	7007.38
2876.75	6821.44
2874.82	6985.33
2872.88	7059.75
2870.95	7382.51
2869.02	7223.89
2867.09	7247.67
2865.15	7364.46
2863.22	7605.11
2861.28	7423.44
2859.34	7466.43
2857.4	7408.8
2855.46	7621.9
2853.52	7602.89
2851.58	7680.48
2849.64	7742.55
2847.7	7758.25
2845.75	7824.08
2843.81	7916.84
2841.86	8028.78
2839.92	8094.39
2837.97	8317.81
2836.02	8082.99
2834.07	8063.84
2832.12	8325.41
2830.17	8379.18
2828.22	8505.9
2826.27	8551.85
2824.31	8528.67
2822.36	8363.56
2820.4	8677.93
2818.45	8539.73
2816.49	8600.87
2814.53	8952.98
2812.57	8780.39
2810.61	9021.14
2808.65	9104.87
2806.69	8947.73
2804.73	9077.27
2802.76	9103.57
2800.8	9232.9
2798.83	9350.67
2796.87	9487.39
2794.9	9509.63
2792.93	9486.13
2790.96	9870.1
2788.99	9675.18
2787.02	9739.13
2785.05	9894.28
2783.07	9958.06
2781.1	10192.7
2779.13	10013.3
2777.15	9913.71
2775.17	9988.74
2773.2	10325.3
2771.22	10225.7
2769.24	10304.3
2767.26	10238.9
2765.28	10453.6
2763.29	10755.1
2761.31	10799.2
2759.33	10484.2
2757.34	10694.7
2755.36	10836.9
2753.37	10922.4
2751.38	10747.5
2749.39	10874.4
2747.4	10974.9
2745.41	11075.2
2743.42	11194.2
2741.43	11373.4
2739.43	11507.2
2737.44	11411.6
2735.44	11496.4
2733.45	11840.4
2731.45	11557
2729.45	11772.9
2727.45	11812.4
2725.45	12065.6
2723.45	11999.9
2721.45	12129.1
2719.45	12321.9
2717.44	12349.8
2715.44	12553.4
2713.43	12502.6
2711.43	12739.7
2709.42	12352.7
2707.41	12511.1
2705.4	13027.7
2703.39	12973.1
2701.38	12784.3
2699.37	12886.3
2697.36	13025.5
2695.34	13347
2693.33	13158.3
2691.31	13468.3
2689.29	13480.5
2687.27	13414.7
2685.26	13765
2683.24	13803
2681.21	14074.8
2679.19	13812.2
2677.17	14061.5
2675.15	14021.5
2673.12	14137.1
2671.1	14315.6
2669.07	14175.6
2667.04	14446.3
2665.01	14605.8
2662.98	14728.2
2660.95	14470.1
2658.92	14684.8
2656.89	15061.6
2654.86	14921.7
2652.82	15191.1
2650.79	15371.8
2648.75	15224.6
2646.71	15401.4
2644.68	15195.5
2642.64	15750.9
2640.6	15695.7
2638.56	15578
2636.51	15875.5
2634.47	15875.3
2632.43	16403.4
2630.38	16109.6
2628.34	16274.2
2626.29	16471.7
2624.24	16310.1
2622.19	16430.5
2620.14	16569
2618.09	16528.2
2616.04	16929.7
2613.99	16892.5
2611.93	17479.7
2609.88	17431.2
2607.82	16970.6
2605.77	17436.6
2603.71	17716.2
2601.65	17522
2599.59	17761.3
2597.53	17836.5
2595.47	17813.5
2593.41	18015.9
2591.34	17567.6
2589.28	18140.5
2587.21	18382.4
2585.15	18442.6
2583.08	18684.1
2581.01	18058.9
2578.94	18626.5
2576.87	18972.6
2574.8	18869.4
2572.73	19034.1
2570.66	19072.1
2568.58	19475.1
2566.51	19516.4
2564.43	19348.2
2562.35	19544.8
2560.28	19726.7
2558.2	19735.3
2556.12	19931.4
2554.03	20296.6
2551.95	20236.5
2549.87	19942.5
2547.79	19951
2545.7	20513.3
2543.61	20359.7
2541.53	20569.2
2539.44	20893.3
2537.35	20775.7
2535.26	20912.8
2533.17	21035.5
2531.08	21179.6
2528.98	21592.2
2526.89	21850.5
2524.79	21628.9
2522.7	21786.7
2520.6	21783.4
2518.5	21530
2516.4	21980.5
2514.3	22377.1
2512.2	21863.1
2510.1	22469.8
2508	22330.7
2505.89	22683.5
2503.79	22875.7
2501.68	22772.2
2499.57	22796.9
2497.47	23227
2495.36	23041.7
2493.25	23457.1
2491.13	23374.8
2489.02	23455.9
2486.91	23643.4
2484.8	23841.3
2482.68	24276.5
2480.56	24282.6
2478.45	24341.8
2476.33	24298.3
2474.21	24495.4
2472.09	24699.4
2469.97	24942
2467.84	25018.4
2465.72	24794.5
2463.6	24902.6
2461.47	25127
2459.34	25393.5
2457.22	25592.8
2455.09	25538.2
2452.96	25976.7
2450.83	25823.4
2448.7	25955.2
2446.56	25911.1
2444.43	25803.8
2442.3	26536.1
2440.16	26509.3
2438.02	26812.4
2435.89	26918.7
2433.75	27375.6
2431.61	27089.1
2429.47	27272.2
2427.32	27696.7
2425.18	27182.9
2423.04	27799.4
2420.89	27565.8
2418.75	27769.1
2416.6	28122.5
2414.45	28056.6
2412.3	28412.9
2410.15	28270.2
2408	28284.4
2405.85	28741.1
2403.7	28856.1
2401.54	28560.2
2399.39	29012.7
2397.23	29186.5
2395.07	29301
2392.91	29269.5
2390.75	29564.4
2388.59	29418.2
2386.43	29508.1
2384.27	29785.1
2382.11	30197
2379.94	30286.3
2377.77	30344.4
2375.61	30180.9
2373.44	30771.6
2371.27	30729.1
2369.1	30907.7
2366.93	31089.6
2364.76	31122.9
2362.59	31415
2360.41	31555
2358.24	31543.2
2356.06	31493.4
2353.88	31960.3
2351.7	31944.8
2349.52	32342.2
2347.34	32168.4
2345.16	32812.8
2342.98	32851.8
2340.8	32935.5
2338.61	32771.9
2336.43	33167.7
2334.24	33340.2
2332.05	33382.3
2329.86	33873.1
2327.67	33675.2
2325.48	33518.5
2323.29	34258.2
2321.09	33903.1
2318.9	34792.3
2316.71	34474.8
2314.51	34321.5
2312.31	34806.4
2310.11	34929.3
2307.91	35290.8
2305.71	35076
2303.51	35365.4
2301.31	35668.2
2299.1	35718.9
2296.9	36106.2
2294.69	35453
2292.49	35683.8
2290.28	36444.1
2288.07	35849.3
2285.86	36663
2283.65	36784.2
2281.43	36925.6
2279.22	36457
2277.01	36537.5
2274.79	37467.3
2272.57	36938.2
2270.35	37373.3
2268.14	37885.6
2265.92	37887.4
2263.69	37976.9
2261.47	38106.9
2259.25	38128.8
2257.02	38116.9
2254.8	38364.5
2252.57	38702.7
2250.34	38663.6
2248.12	38557.3
2245.89	39372.4
2243.65	38912.9
2241.42	39313.8
2239.19	39059.5
2236.96	39208.3
2234.72	39618.5
2232.48	40323.4
2230.25	40102.6
2228.01	40294
2225.77	40391.5
2223.53	40575.8
2221.28	40703.1
2219.04	40756.8
2216.8	40786.9
2214.55	41662.1
2212.31	41084.2
2210.06	41564.5
2207.81	42071.1
2205.56	42450.5
2203.31	42333.1
2201.06	42305.7
2198.81	45287.2
2196.55	42793.1
2194.3	42409.7
2192.04	42907.4
2189.78	42594
2187.52	43472.9
2185.26	43524.6
2183	44229.7
2180.74	43823.3
2178.48	43980.8
2176.22	44369.9
2173.95	44219
2171.68	44356.1
2169.42	45091.6
2167.15	45330.6
2164.88	45278.6
2162.61	45547
2160.34	45422.2
2158.06	45277.8
2155.79	45944.7
2153.51	45506.9
2151.24	46005
2148.96	46071.2
2146.68	46459.9
2144.4	46693.6
2142.12	46933.7
2139.84	46867.8
2137.56	46900.6
2135.27	46926.7
2132.99	46568.9
2130.7	47644.6
2128.41	48237.4
2126.12	47676.3
2123.83	48442
2121.54	48408.3
2119.25	48387.7
2116.96	48520.8
2114.66	49261.7
2112.37	49034.8
2110.07	48844.1
2107.77	49675
2105.48	49363.4
2103.18	49841.1
2100.87	49891.5
2098.57	50085
2096.27	50288.2
2093.96	50875
2091.66	50745.8
2089.35	51023
2087.04	51027
2084.73	51001.8
2082.42	51314.1
2080.11	51574.2
2077.8	51406
2075.49	52297.8
2073.17	52203.9
2070.86	52971.3
2068.54	51954.8
2066.22	52184.6
2063.9	52229.8
2061.58	53157.2
2059.26	52736.8
2056.94	52823.7
2054.61	53413.8
2052.29	53471.1
2049.96	53708.9
2047.63	54114
2045.3	54509
2042.97	54494.8
2040.64	54181.5
2038.31	54714.1
2035.98	54333.4
2033.64	54932.8
2031.31	55265.1
2028.97	55901.9
2026.63	55271.1
2024.29	55788.6
2021.95	55674.4
2019.61	56008.6
2017.27	56294.5
2014.93	56800.8
2012.58	56740.5
2010.24	56977.6
2007.89	57543.5
2005.54	57639.3
2003.19	58274.5
2000.84	57856.3
1998.49	58350.4
1996.13	58668.7
1993.78	58779.6
1991.43	58623
1989.07	58826
1986.71	59451.9
1984.35	59609.8
1981.99	59672.2
1979.63	60141
1977.27	60057
1974.9	60943.9
1972.54	60520.3
1970.17	61000.4
1967.81	61099.8
1965.44	61550.6
1963.07	60630.6
1960.7	61659.9
1958.33	61720.8
1955.95	61430.8
1953.58	61779.1
1951.2	62256.5
1948.83	63093
1946.45	63048.8
1944.07	62992.1
1941.69	62768.4
1939.31	63845.4
1936.92	63489.2
1934.54	63356.8
1932.16	63573.5
1929.77	64157.6
1927.38	64640.5
1924.99	64319.3
1922.6	64980.6
1920.21	64872.7
1917.82	64877.8
1915.43	64936.2
1913.03	65514.3
1910.64	65550.3
1908.24	65511.1
1905.84	66122.4
1903.44	66401.7
1901.04	66668.3
1898.64	66478.7
1896.24	66620.1
1893.83	67759.4
1891.43	66830.6
1889.02	67653.9
1886.61	67869.1
1884.2	68242.7
1881.79	67623.5
1879.38	68413.6
1876.97	68957.3
1874.55	69043.7
1872.14	68934.5
1869.72	69380.8
1867.31	69643.7
1864.89	69723.4
1862.47	70063.2
1860.05	70436.7
1857.62	70237.2
1855.2	71346.6
1852.77	70902.5
1850.35	71769.3
1847.92	71785.6
1845.49	71981
1843.06	71583.6
1840.63	72235.4
1838.2	72633.7
1835.77	72165.6
1833.33	72153.9
1830.9	73074.8
1828.46	73047.2
1826.02	72705.9
1823.58	73222.4
1821.14	73452.7
1818.7	74097.3
1816.25	73897.2
1813.81	74292.4
1811.36	74196.6
1808.92	74431.8
1806.47	74979.2
1804.02	74953.5
1801.57	74802.4
1799.12	74755.4
1796.66	75649.9
1794.21	76008.8
1791.75	75912.3
1789.3	76755.9
1786.84	76741.4
1784.38	76772.7
1781.92	76831.3
1779.46	77322.4
1776.99	77882.9
1774.53	78470.3
1772.06	78050.3
1769.6	78001.6
1767.13	78730.7
1764.66	79143.3
1762.19	79112.2
1759.71	79860.8
1757.24	80017.3
1754.77	79291.8
1752.29	80832.7
1749.81	80316.3
1747.34	80817.2
1744.86	80903.1
1742.38	80949.7
1739.89	81376.8
1737.41	80958
1734.93	80784.1
1732.44	81750.5
1729.95	81911
1727.47	82191.8
1724.98	82363.8
1722.48	82267.7
1719.99	82388.3
1717.5	82553.9
1715	83215.2
1712.51	82953.5
1710.01	83442.8
1707.51	83991.5
1705.01	84281.7
1702.51	83660.1
1700.01	84531.4
1697.51	85054.4
1695	85005.1
1692.5	85374.6
1689.99	85136.7
1687.48	85697
1684.97	86457
1682.46	86347.1
1679.95	86932.8
1677.43	86727.3
1674.92	86799.3
1672.4	86895
1669.88	88268.3
1667.36	88318.5
1664.84	88318
1662.32	88147.9
1659.8	89164
1657.27	89064.9
1654.75	88918.4
1652.22	89626.7
1649.69	89213
1647.16	89502.4
1644.63	89939.5
1642.1	90583.6
1639.57	90717.7
1637.03	91180.2
1634.5	91021.1
1631.96	91479.8
1629.42	91657.5
1626.88	91967.8
1624.34	92451.8
1621.8	93631.4
1619.26	94568
1616.71	94846.6
1614.17	95572.5
1611.62	95338
1609.07	95536.1
1606.52	95498.9
1603.97	95608.5
1601.41	97768.4
1598.86	98851.5
1596.31	100729
1593.75	102460
1591.19	104125
1588.63	104699
1586.07	104050
1583.51	103736
1580.95	102650
1578.38	103697
1575.81	103652
1573.25	103006
1570.68	102103
1568.11	101234
1565.54	101316
1562.97	101004
1560.39	100393
1557.82	100941
1555.24	101046
1552.66	100627
1550.08	100634
1547.5	100373
1544.92	100042
1542.34	100066
1539.75	99770.4
1537.17	100728
1534.58	99893.5
1531.99	99737.6
1529.4	100688
1526.81	100954
1524.22	101050
1521.62	101197
1519.03	101968
1516.43	101791
1513.83	102050
1511.23	102924
1508.63	103245
1506.03	103370
1503.43	104169
1500.82	105474
1498.22	105449
1495.61	104316
1493	104836
1490.39	104153
1487.78	104102
1485.17	104074
1482.55	104421
1479.94	104539
1477.32	104537
1474.7	104087
1472.08	105015
1469.46	105275
1466.84	105221
1464.22	106043
1461.59	105994
1458.97	106653
1456.34	106452
1453.71	106496
1451.08	107325
1448.45	107132
1445.81	108315
1443.18	109261
1440.54	109048
1437.91	110205
1435.27	110941
1432.63	111761
1429.99	112548
1427.34	113071
1424.7	113075
1422.05	112931
1419.41	112946
1416.76	114725
1414.11	114806
1411.46	115239
1408.81	115125
1406.15	113839
1403.5	113692
1400.84	113895
1398.18	114346
1395.52	114140
1392.86	113688
1390.2	115009
1387.54	115397
1384.87	116786
1382.2	117009
1379.54	117400
1376.87	118168
1374.2	118662
1371.53	120073
1368.85	120734
1366.18	120971
1363.5	121883
1360.82	122334
1358.14	122436
1355.46	122847
1352.78	122805
1350.1	123529
1347.42	125001
1344.73	125421
1342.04	124875
1339.35	124631
1336.66	123164
1333.97	122528
1331.28	121526
1328.58	121826
1325.89	121479
1323.19	121226
1320.49	121140
1317.79	120407
1315.09	121402
1312.39	121080
1309.68	121884
1306.98	122313
1304.27	122548
1301.56	122650
1298.85	124412
1296.14	125513
1293.43	127460
1290.71	130100
1288	131525
1285.28	132789
1282.56	132267
1279.84	130794
1277.12	128270
1274.4	126404
1271.67	124403
1268.95	123638
1266.22	122974
1263.49	122760
1260.76	122825
1258.03	123144
1255.3	122797
1252.56	123738
1249.83	123558
1247.09	123860
1244.35	124350
1241.61	124148
1238.87	123864
1236.13	124361
1233.38	123949
1230.64	125554
1227.89	125160
1225.14	126941
1222.39	127678
1219.64	128398
1216.88	128409
1214.13	128829
1211.37	127688
1208.62	127896
1205.86	127445
1203.1	127402
1200.33	127117
1197.57	129568
1194.81	129510
1192.04	128951
1189.27	128888
1186.5	129190
1183.73	129842
1180.96	130062
1178.19	129707
1175.41	128495
1172.63	127082
1169.86	126944
1167.08	128889
1164.3	130646
1161.51	133657
1158.73	136756
1155.94	136842
1153.16	135723
1150.37	134527
1147.58	133789
1144.79	134488
1141.99	135676
1139.2	136744
1136.4	136425
1133.61	136497
1130.81	135771
1128.01	135409
1125.2	133969
1122.4	130913
1119.6	130303
1116.79	129005
1113.98	127333
1111.17	126689
1108.36	126752
1105.55	126429
1102.73	126460
1099.92	126142
1097.1	125944
1094.28	126696
1091.46	126131
1088.64	126508
1085.82	125715
1083	125250
1080.17	125416
1077.34	125885
1074.51	125656
1071.68	125771
1068.85	125633
1066.02	125632
1063.18	125956
1060.35	125407
1057.51	126062
1054.67	126316
1051.83	126766
1048.98	126920
1046.14	128130
1043.29	127874
1040.45	127832
1037.6	126877
1034.75	126482
1031.9	126393
1029.04	126712
1026.19	126909
1023.33	127164
1020.47	127148
1017.61	126666
1014.75	127761
1011.89	128458
1009.03	128787
1006.16	127634
1003.29	127241
1000.43	126786
997.556	126430
994.684	126566
991.811	126430
988.936	127397
986.059	126901
983.182	127320
980.302	127533
977.421	126886
974.538	127978
971.654	128219
968.768	127362
965.881	128252
962.992	128505
960.102	128866
957.21	129333
954.316	128973
951.421	129890
948.525	130048
945.627	129999
942.727	130019
939.825	129931
936.923	131170
934.018	130779
931.112	130089
928.204	129673
925.295	129487
922.385	129608
919.472	129852
916.558	130000
913.643	130853
910.726	130368
907.807	131326
904.887	130967
901.965	130883
899.042	131246
896.117	130641
893.19	130401
890.262	130377
887.332	130726
884.401	131087
881.468	131359
878.533	132182
875.597	131515
872.66	132146
869.72	132880
866.779	132711
863.837	133503
860.893	133873
857.947	134269
855	134028
852.051	134324
849.1	134508
846.148	134081
843.195	134542
840.239	133684
837.282	134644
834.324	133772
831.364	134295
828.402	133783
825.438	133652
822.473	133387
819.507	133024
816.539	132961
813.569	133677
810.597	132748
807.624	132918
804.649	133393
801.673	134232
798.695	134443
795.716	133595
792.734	134910
789.751	134688
786.767	134898
783.781	134862
780.793	135451
777.804	135718
774.813	135915
771.82	135971
768.826	135801
765.83	136836
762.832	136236
759.833	136441
756.832	136909
753.83	136561
750.826	135755
747.82	136699
744.812	136492
741.803	135278
738.793	136001
735.78	135555
732.766	135399
729.75	135615
726.733	135752
723.714	136053
720.693	136532
717.671	136382
714.647	136446
711.621	136887
708.594	137178
705.565	137618
702.534	137022
699.502	136809
696.468	137982
693.433	137970
690.395	137378
687.356	138321
684.316	138588
681.273	138186
678.229	138179
675.183	138532
672.136	138701
669.087	138485
666.036	137728
662.984	138963
659.93	137745
656.874	138737
653.817	138616
650.757	139022
647.697	139066
644.634	138176
641.57	138484
638.504	139011
635.436	139094
632.367	141147
629.296	139081
626.223	139871
623.149	140664
620.073	140267
616.995	140428
613.915	141101
610.834	141173
607.751	141533
604.666	140837
601.58	140759
598.492	140232
595.402	140547
592.311	139958
589.218	139837
586.123	140122
583.026	139740
579.928	139171
576.828	139877
573.726	139070
570.622	138744
567.517	138679
564.41	138877
561.301	139569
558.191	139648
555.079	140151
551.965	139703
548.849	140619
545.732	140861
542.613	140929
539.492	141603
536.37	141454
533.245	141961
530.119	141860
526.991	142055
523.862	141401
520.731	143075
517.598	142200
514.463	141992
511.326	142589
508.188	143657
505.048	143147
501.906	143668
498.763	144731
495.618	148982
492.471	154117
489.322	153826
486.171	149368
483.019	144365
479.865	143115
476.709	140949
473.552	140347
470.392	140312
467.231	140148
464.068	140897
460.903	141413
457.737	141802
454.569	141910
451.399	141826
448.227	143408
445.054	142955
441.878	142572
438.701	142601
435.522	141648
432.342	142524
429.159	141855
425.975	141295
422.789	140921
419.601	141884
416.411	141743
413.22	141293
410.027	141728
406.832	141434
403.635	141984
400.437	141728
397.236	141871
394.034	141543
390.83	141620
387.624	142032
384.417	141052
381.207	142393
377.996	141243
374.783	141019
371.568	141371
368.352	140669
365.133	141165
361.913	140818
358.691	140245
355.467	140217
352.241	140466
349.014	140735
345.784	140208
342.553	140790
339.32	140346
336.085	140775
332.849	141182
329.61	141602
326.37	140802
323.128	141162
319.884	140886
316.638	140492
313.39	140854
310.141	140312
306.889	139882
303.636	139976
300.381	139793
297.124	138632
293.866	138241
290.605	137928
287.343	138817
284.079	138497
280.812	139546
277.544	139501
274.275	139654
271.003	140688
267.729	140251
264.454	140964
261.177	141513
257.898	141645
254.617	139970
251.334	139806
248.049	138971
244.763	138912
241.474	138496
238.184	138048
234.892	137901
231.598	137501
228.302	137874
225.004	138239
221.704	138237
218.403	138760
215.099	138395
211.794	138779
208.487	138448
205.178	138596
201.867	137998
198.554	138033
195.239	137416
191.922	137010
188.604	136852
185.283	136063
181.961	136565
178.637	135186
175.311	135451
171.983	135441
168.653	135517
165.321	135208
161.987	134453
158.651	134102
155.314	134259
151.974	133980
148.633	134334
145.29	134278
141.944	134208
138.597	134429
135.248	134826
131.897	133973
128.544	133914
125.19	132760
121.833	133036
118.474	132828
115.114	132525
111.751	128555
108.387	121467
105.02	110703
101.652	101370
100.529	99803.6