File: Spicy-Raman/model_train_and_validate/Raman_Data/cellulose/20181203 NBay Control 7-9e_1.txt
3201.19	357.953
3199.41	357.844
3197.63	353.474
3195.84	433.23
3194.06	348.95
3192.27	348.792
3190.49	302.429
3188.7	369.468
3186.92	386.087
3185.13	222.319
3183.34	373.158
3181.55	377.18
3179.76	272.284
3177.97	401.96
3176.18	347.37
3174.39	426.695
3172.59	367.962
3170.8	355.256
3169	296.609
3167.21	317.353
3165.41	383.989
3163.61	317.064
3161.81	304.41
3160.02	345.953
3158.22	354.128
3156.41	353.967
3154.61	395.431
3152.81	403.572
3151.01	432.499
3149.2	340.854
3147.4	303.305
3145.59	394.532
3143.79	469.072
3141.98	406.621
3140.17	348.373
3138.36	422.832
3136.55	430.927
3134.74	356.181
3132.93	347.739
3131.12	355.857
3129.31	397.055
3127.49	475.422
3125.68	371.899
3123.86	421.294
3122.04	462.386
3120.23	375.518
3118.41	461.965
3116.59	428.772
3114.77	379.125
3112.95	383.071
3111.13	473.474
3109.31	460.912
3107.48	448.362
3105.66	415.265
3103.84	345.211
3102.01	505.257
3100.18	381.849
3098.36	451.443
3096.53	356.888
3094.7	471.533
3092.87	454.924
3091.04	450.619
3089.21	483.171
3087.38	466.579
3085.54	486.82
3083.71	388.46
3081.87	445.503
3080.04	473.897
3078.2	518.598
3076.36	473.463
3074.53	456.928
3072.69	566.82
3070.85	497.269
3069.01	517.412
3067.17	500.887
3065.32	415.179
3063.48	508.565
3061.64	500.199
3059.79	483.71
3057.95	560.685
3056.1	532
3054.25	535.816
3052.4	584.258
3050.55	608.323
3048.7	494.543
3046.85	461.902
3045	583.188
3043.15	570.776
3041.3	441.036
3039.44	537.898
3037.59	574.033
3035.73	529.323
3033.87	557.351
3032.02	500.579
3030.16	492.279
3028.3	600.95
3026.44	511.984
3024.58	588.309
3022.72	600.122
3020.85	595.82
3018.99	567.379
3017.13	635.494
3015.26	538.716
3013.39	655.002
3011.53	594.452
3009.66	626.297
3007.79	626.009
3005.92	653.798
3004.05	685.571
3002.18	689.263
3000.31	652.896
2998.43	640.585
2996.56	688.312
2994.69	683.995
2992.81	659.691
2990.93	683.365
2989.06	627.128
2987.18	646.802
2985.3	674.439
2983.42	753.907
2981.54	701.728
2979.66	717.345
2977.77	816.6
2975.89	752.518
2974.01	795.948
2972.12	751.824
2970.24	807.142
2968.35	890.229
2966.46	726.95
2964.57	742.497
2962.68	845.341
2960.79	745.778
2958.9	800.945
2957.01	792.649
2955.12	796.244
2953.22	807.755
2951.33	787.593
2949.43	826.788
2947.54	909.442
2945.64	861.595
2943.74	876.998
2941.84	781.826
2939.94	816.986
2938.04	974.407
2936.14	926.638
2934.24	914.386
2932.33	874.568
2930.43	933.228
2928.52	822.592
2926.62	963.837
2924.71	935.865
2922.8	1002.25
2920.89	1052.86
2918.98	903.152
2917.07	1024.41
2915.16	1059.24
2913.25	960.716
2911.34	1050.42
2909.42	979.414
2907.51	1049.45
2905.59	1033.3
2903.67	1028.91
2901.76	1102.73
2899.84	1020.14
2897.92	1031.39
2896	1019.19
2894.08	1003.11
2892.15	1084.57
2890.23	1091.87
2888.31	1099.15
2886.38	1118.12
2884.46	1039.72
2882.53	1019.78
2880.6	1081.55
2878.67	1042.16
2876.75	1103.87
2874.82	1165.52
2872.88	959.163
2870.95	1067.4
2869.02	1008.71
2867.09	1097.43
2865.15	1182.19
2863.22	1456.71
2861.28	1126.88
2859.34	948.303
2857.4	1118.09
2855.46	1086.63
2853.52	1035.88
2851.58	1039.26
2849.64	1166.21
2847.7	1084.61
2845.75	1084.11
2843.81	1126.02
2841.86	1183.31
2839.92	1113.41
2837.97	1139.85
2836.02	1154.71
2834.07	1108.01
2832.12	1172.86
2830.17	1245.35
2828.22	1167.93
2826.27	1163.54
2824.31	1205.22
2822.36	1085.73
2820.4	1184.92
2818.45	1146.04
2816.49	1061.22
2814.53	1282.83
2812.57	1263.09
2810.61	1277.8
2808.65	1238.97
2806.69	1123.72
2804.73	1211.07
2802.76	1176.13
2800.8	1194.67
2798.83	1243.7
2796.87	1246.94
2794.9	1349.26
2792.93	1329.58
2790.96	1317.54
2788.99	1233.19
2787.02	1331.52
2785.05	1289.07
2783.07	1296.07
2781.1	1284.06
2779.13	1237.9
2777.15	1442.27
2775.17	1323.99
2773.2	1289.24
2771.22	1307.59
2769.24	1485.03
2767.26	1401.03
2765.28	1298.18
2763.29	1414.85
2761.31	1327.22
2759.33	1439.98
2757.34	1477.08
2755.36	1468.83
2753.37	1445.5
2751.38	1493.86
2749.39	1436.6
2747.4	1571.61
2745.41	1491.76
2743.42	1524.95
2741.43	1524.23
2739.43	1512.23
2737.44	1372.4
2735.44	1507.05
2733.45	1528.88
2731.45	1561.95
2729.45	1561.22
2727.45	1575.49
2725.45	1660.99
2723.45	1566.51
2721.45	1603.24
2719.45	1493.9
2717.44	1642.89
2715.44	1649.6
2713.43	1562.83
2711.43	1707.84
2709.42	1647.27
2707.41	1713.7
2705.4	1694.23
2703.39	1723.28
2701.38	1670.27
2699.37	1725.38
2697.36	1735.74
2695.34	1660.46
2693.33	1812.25
2691.31	1740.72
2689.29	1784.52
2687.27	1820.83
2685.26	1812.55
2683.24	1741.15
2681.21	1885.05
2679.19	1717.26
2677.17	1764.64
2675.15	1863.86
2673.12	1888.9
2671.1	1825.08
2669.07	1938.92
2667.04	1919.51
2665.01	2003.63
2662.98	1895.53
2660.95	1920.49
2658.92	1930.65
2656.89	2003.53
2654.86	1903.01
2652.82	1909.48
2650.79	1893.84
2648.75	2040.26
2646.71	2079.78
2644.68	2053.04
2642.64	2004.26
2640.6	1988.61
2638.56	2072.17
2636.51	2063.85
2634.47	2048.19
2632.43	1970.17
2630.38	2053.58
2628.34	2177.23
2626.29	2256.8
2624.24	2160.52
2622.19	2046.03
2620.14	2195.05
2618.09	2267.15
2616.04	2236.83
2613.99	2170.01
2611.93	2256.62
2609.88	2153.35
2607.82	2367.57
2605.77	2213.3
2603.71	2314.29
2601.65	2386.05
2599.59	2308.46
2597.53	2187.26
2595.47	2240.78
2593.41	2410.61
2591.34	2344.05
2589.28	2263.02
2587.21	2345.45
2585.15	2398.77
2583.08	2368.61
2581.01	2392.86
2578.94	2485.94
2576.87	2470.27
2574.8	2327.9
2572.73	2406.4
2570.66	2408.87
2568.58	2519.8
2566.51	2529.44
2564.43	2524.62
2562.35	2454.83
2560.28	2478.92
2558.2	2618.39
2556.12	2411.67
2554.03	2561.85
2551.95	2488.6
2549.87	2692.6
2547.79	2597.77
2545.7	2646.88
2543.61	2627.64
2541.53	2651.54
2539.44	2743.64
2537.35	2720.79
2535.26	2776.9
2533.17	2761.23
2531.08	2853.1
2528.98	2851.74
2526.89	2721.46
2524.79	2591.31
2522.7	2590.08
2520.6	2860.59
2518.5	2998.61
2516.4	2811.42
2514.3	2820.79
2512.2	2901.52
2510.1	2896.57
2508	2863.09
2505.89	2872.41
2503.79	3180.94
2501.68	3054.8
2499.57	2918.11
2497.47	3144.36
2495.36	2936.65
2493.25	3041.85
2491.13	2958.7
2489.02	3092.19
2486.91	3083.61
2484.8	3064.4
2482.68	2999.12
2480.56	3213.82
2478.45	3173.32
2476.33	3150.56
2474.21	3219.82
2472.09	3228.88
2469.97	3174.31
2467.84	3232.85
2465.72	3114.76
2463.6	3328.58
2461.47	3207.03
2459.34	3346.54
2457.22	3246.24
2455.09	3230.59
2452.96	3310.03
2450.83	3347.15
2448.7	3447.56
2446.56	3368.55
2444.43	3349.36
2442.3	3432.05
2440.16	3381.25
2438.02	3446.3
2435.89	3444.64
2433.75	3502.59
2431.61	3627.06
2429.47	3632.32
2427.32	3543.05
2425.18	3646.32
2423.04	3592.1
2420.89	3541.42
2418.75	3721.42
2416.6	3545
2414.45	3724.82
2412.3	3688.13
2410.15	3693.33
2408	3803.09
2405.85	3766.42
2403.7	3586.99
2401.54	3874.17
2399.39	3747.05
2397.23	3842.61
2395.07	3983.26
2392.91	3811.11
2390.75	3864.83
2388.59	3776.19
2386.43	3975.57
2384.27	3914.71
2382.11	3919.75
2379.94	3969.81
2377.77	3902.11
2375.61	4066.34
2373.44	4047.08
2371.27	4152.3
2369.1	4074.26
2366.93	3992.85
2364.76	4256.75
2362.59	4147.72
2360.41	3973.26
2358.24	4188.52
2356.06	4183.04
2353.88	4239.56
2351.7	4148.01
2349.52	4314.59
2347.34	4298.75
2345.16	4441.03
2342.98	4277.4
2340.8	4313.1
2338.61	4410.55
2336.43	4308.92
2334.24	4454.28
2332.05	4637.19
2329.86	4312.93
2327.67	4372.47
2325.48	4668.09
2323.29	4498.21
2321.09	4366.1
2318.9	4555.36
2316.71	4382.36
2314.51	4506.55
2312.31	4674.98
2310.11	4536.28
2307.91	4612.48
2305.71	4746.53
2303.51	4669.3
2301.31	4670.43
2299.1	4824.67
2296.9	4825.73
2294.69	4565.05
2292.49	4695.33
2290.28	4716.81
2288.07	4853.68
2285.86	4780.07
2283.65	4906.59
2281.43	4843.2
2279.22	4922.14
2277.01	5024.71
2274.79	5005.34
2272.57	4884.5
2270.35	5003.84
2268.14	4991.26
2265.92	4998.96
2263.69	5185.58
2261.47	5240.41
2259.25	5106.32
2257.02	5049.89
2254.8	5097.97
2252.57	5193.14
2250.34	4988.64
2248.12	5117.42
2245.89	5303.24
2243.65	5189.73
2241.42	5103.2
2239.19	5345.84
2236.96	5302.95
2234.72	5350.68
2232.48	5344.71
2230.25	5238.2
2228.01	5436.62
2225.77	5400.48
2223.53	5404.53
2221.28	5391.85
2219.04	5268.86
2216.8	5503.53
2214.55	5604.37
2212.31	5551.55
2210.06	5528.81
2207.81	5489.42
2205.56	5746.73
2203.31	5770.57
2201.06	5637.87
2198.81	5661.73
2196.55	5778.72
2194.3	5729.33
2192.04	5822.91
2189.78	5680.53
2187.52	5860.36
2185.26	5867.44
2183	5980.66
2180.74	5977.72
2178.48	5855.49
2176.22	5981.79
2173.95	6008.64
2171.68	5913.04
2169.42	6187.95
2167.15	6141.93
2164.88	6033.18
2162.61	6178.83
2160.34	6195.59
2158.06	6347.61
2155.79	6176.31
2153.51	6222.71
2151.24	6203.17
2148.96	6262.68
2146.68	6318.84
2144.4	6256.52
2142.12	6213.98
2139.84	6424.53
2137.56	6217.72
2135.27	6300.01
2132.99	6529.88
2130.7	6559.46
2128.41	6638.18
2126.12	6477.63
2123.83	6536.66
2121.54	6346.86
2119.25	6582.56
2116.96	6572.77
2114.66	6605.48
2112.37	6713.29
2110.07	6631.61
2107.77	6726.25
2105.48	6618.54
2103.18	6722.86
2100.87	6840.11
2098.57	6843.25
2096.27	6979.85
2093.96	6842.99
2091.66	6989.22
2089.35	7050.77
2087.04	7066.78
2084.73	6897.66
2082.42	6975.4
2080.11	7166.6
2077.8	7205.21
2075.49	7084.96
2073.17	6909.77
2070.86	7230.13
2068.54	7016.19
2066.22	7219.73
2063.9	7235.55
2061.58	7248.13
2059.26	7079.81
2056.94	7376.53
2054.61	7234.12
2052.29	7288.59
2049.96	7372
2047.63	7465
2045.3	7480.62
2042.97	7338.5
2040.64	7527.88
2038.31	7627.04
2035.98	7475.42
2033.64	7410.67
2031.31	7519.36
2028.97	7698.54
2026.63	7463.78
2024.29	7591.51
2021.95	7658.23
2019.61	7811.36
2017.27	7810.67
2014.93	7662.81
2012.58	7841.28
2010.24	7846.96
2007.89	7894.18
2005.54	7960.49
2003.19	7876.74
2000.84	8016.37
1998.49	7805.13
1996.13	8097.61
1993.78	8141.36
1991.43	8245.54
1989.07	8050.51
1986.71	8297.75
1984.35	8176
1981.99	8365.74
1979.63	8167.85
1977.27	8366.91
1974.9	8248.53
1972.54	8441.01
1970.17	8367.07
1967.81	8546.62
1965.44	8542.36
1963.07	8465.3
1960.7	8426.28
1958.33	8637.05
1955.95	8714.89
1953.58	8546.3
1951.2	8529.41
1948.83	8604.02
1946.45	8672.25
1944.07	8803.44
1941.69	8720.28
1939.31	8794.64
1936.92	8985.37
1934.54	8757.53
1932.16	8756.29
1929.77	8937.31
1927.38	8973.67
1924.99	8997.42
1922.6	9043.12
1920.21	9286.35
1917.82	9040.33
1915.43	9067.13
1913.03	9103.29
1910.64	9186.37
1908.24	9335.05
1905.84	9177.15
1903.44	9416.31
1901.04	9627.12
1898.64	9425.6
1896.24	9296.04
1893.83	9363.11
1891.43	9523.63
1889.02	9646.6
1886.61	9560.78
1884.2	9565.31
1881.79	9529.39
1879.38	9652.1
1876.97	9886.56
1874.55	9639.29
1872.14	9653.07
1869.72	9790.96
1867.31	9829.46
1864.89	9833.81
1862.47	9816.47
1860.05	10096.5
1857.62	10014
1855.2	10061.5
1852.77	10208
1850.35	9998.86
1847.92	10129.7
1845.49	9889.98
1843.06	10381.9
1840.63	10463
1838.2	10152.5
1835.77	10378.5
1833.33	10508.8
1830.9	10408
1828.46	10258.2
1826.02	10376
1823.58	10447.6
1821.14	10365.5
1818.7	10406.4
1816.25	10812.4
1813.81	10589.1
1811.36	10571.5
1808.92	10624.4
1806.47	10597.6
1804.02	10405.5
1801.57	10681.7
1799.12	10612.1
1796.66	10909.3
1794.21	10885.5
1791.75	10956.3
1789.3	11097.2
1786.84	10908.6
1784.38	10973.2
1781.92	11098.7
1779.46	11004.7
1776.99	11096.6
1774.53	11364.8
1772.06	11325.6
1769.6	11313.7
1767.13	11362.7
1764.66	11487.5
1762.19	11430.1
1759.71	11251.4
1757.24	11439.7
1754.77	11215.7
1752.29	11622
1749.81	11607
1747.34	11767.5
1744.86	11640.5
1742.38	11876.5
1739.89	11752.6
1737.41	11604.7
1734.93	11680.3
1732.44	11761.8
1729.95	11795
1727.47	11734.8
1724.98	11954.7
1722.48	12005.8
1719.99	11861.3
1717.5	11933.5
1715	12209.9
1712.51	12002.4
1710.01	11972.3
1707.51	12281.3
1705.01	12092.1
1702.51	12014
1700.01	12004.9
1697.51	12382.1
1695	12390.8
1692.5	12393.4
1689.99	12297.4
1687.48	12117.7
1684.97	12691.1
1682.46	12502.5
1679.95	12633.4
1677.43	12701.5
1674.92	12653.3
1672.4	12921
1669.88	12863.8
1667.36	13160.8
1664.84	12859.6
1662.32	12888.7
1659.8	12950.4
1657.27	12765.6
1654.75	13112.4
1652.22	13144.3
1649.69	13030.7
1647.16	13471.8
1644.63	13604.1
1642.1	13259.5
1639.57	13285.3
1637.03	13355.4
1634.5	13304.2
1631.96	13601.8
1629.42	13429.4
1626.88	13384.2
1624.34	13480.6
1621.8	13529.7
1619.26	13316.4
1616.71	13524.7
1614.17	13765.1
1611.62	13578.5
1609.07	13615.7
1606.52	13864.5
1603.97	13698.7
1601.41	13879.6
1598.86	13910.7
1596.31	13753.9
1593.75	13726.3
1591.19	13692.8
1588.63	13800
1586.07	14170.7
1583.51	14087.3
1580.95	13872.4
1578.38	14195.6
1575.81	13989.6
1573.25	14175.2
1570.68	14284.7
1568.11	14181
1565.54	14334.1
1562.97	14326.7
1560.39	14479.6
1557.82	14416.8
1555.24	14432.7
1552.66	14407.8
1550.08	14420.7
1547.5	14453.9
1544.92	14681.7
1542.34	14642.2
1539.75	14771
1537.17	14531.4
1534.58	14628.2
1531.99	14742.4
1529.4	14566.8
1526.81	14828.4
1524.22	14765.8
1521.62	14908.5
1519.03	14909.5
1516.43	15023.1
1513.83	14793
1511.23	15108.5
1508.63	14702.8
1506.03	15092.9
1503.43	14966.9
1500.82	15172.2
1498.22	15152.9
1495.61	15311.8
1493	15154.4
1490.39	15060.4
1487.78	15336.9
1485.17	15423.6
1482.55	15510.3
1479.94	15579.7
1477.32	15445.5
1474.7	15680.9
1472.08	15607
1469.46	15607.5
1466.84	15622.2
1464.22	15699.9
1461.59	15337.5
1458.97	15897.7
1456.34	16006.4
1453.71	15906.9
1451.08	15747.5
1448.45	15614
1445.81	15608.7
1443.18	15987.7
1440.54	15911.1
1437.91	16005.2
1435.27	16181.6
1432.63	16315.2
1429.99	16201.6
1427.34	16221.6
1424.7	16298.2
1422.05	16247.2
1419.41	16306.7
1416.76	16547.4
1414.11	16827.4
1411.46	16431.2
1408.81	16340.6
1406.15	16580.7
1403.5	16721.8
1400.84	16622.7
1398.18	16529.4
1395.52	16729.4
1392.86	16794
1390.2	17154.2
1387.54	17021.4
1384.87	16967.5
1382.2	17253.9
1379.54	17259
1376.87	17101
1374.2	17459.9
1371.53	17024.2
1368.85	17368.8
1366.18	17516.7
1363.5	17401
1360.82	17481.5
1358.14	17248.5
1355.46	17426.9
1352.78	17700.2
1350.1	17500.9
1347.42	17695.6
1344.73	17708.7
1342.04	17718.9
1339.35	17974.6
1336.66	17920.6
1333.97	17841.5
1331.28	17759.8
1328.58	17689.2
1325.89	17585.4
1323.19	17687.4
1320.49	17664.2
1317.79	17510.5
1315.09	17512.4
1312.39	17836.1
1309.68	17482.9
1306.98	17509.8
1304.27	17547.6
1301.56	17463.7
1298.85	17490.5
1296.14	18023.3
1293.43	17936.4
1290.71	17974
1288	18199.2
1285.28	18140
1282.56	18411.8
1279.84	18222.9
1277.12	17733.8
1274.4	17633.6
1271.67	17800.5
1268.95	17620.6
1266.22	17834
1263.49	17439.8
1260.76	17724.5
1258.03	17794.8
1255.3	17560.4
1252.56	17847.3
1249.83	17520
1247.09	18042.2
1244.35	17690.4
1241.61	17700.2
1238.87	17723.7
1236.13	17667.9
1233.38	17847.1
1230.64	17832.2
1227.89	18035.6
1225.14	17947
1222.39	17923.9
1219.64	18050.6
1216.88	18000.2
1214.13	17846.4
1211.37	17749.9
1208.62	17990.7
1205.86	17834.4
1203.1	17710.9
1200.33	17899.7
1197.57	17722
1194.81	17867.2
1192.04	18006.8
1189.27	18027
1186.5	18282.9
1183.73	17959.2
1180.96	18247.2
1178.19	18278.1
1175.41	18073.9
1172.63	18320.8
1169.86	18281.4
1167.08	18263.6
1164.3	18582.9
1161.51	18538
1158.73	18678.9
1155.94	18550.6
1153.16	18661.8
1150.37	18727.1
1147.58	18988.6
1144.79	18892.6
1141.99	18941.6
1139.2	19036.2
1136.4	18902.7
1133.61	19112.4
1130.81	19238.9
1128.01	19796.3
1125.2	19518.1
1122.4	19625.4
1119.6	19684.5
1116.79	19847.7
1113.98	19543.3
1111.17	19234
1108.36	19330.4
1105.55	19661.4
1102.73	19733.5
1099.92	20050.6
1097.1	20633.5
1094.28	20827.4
1091.46	20005.2
1088.64	19763.3
1085.82	19537.6
1083	19500.6
1080.17	19423.8
1077.34	19193.3
1074.51	19530.3
1071.68	19556.9
1068.85	19424.7
1066.02	19324.3
1063.18	19713.3
1060.35	19480.7
1057.51	19420.1
1054.67	19557.6
1051.83	19621
1048.98	19323
1046.14	19439.2
1043.29	19499.9
1040.45	19507.9
1037.6	19602.7
1034.75	19487
1031.9	19558
1029.04	19290
1026.19	19350.5
1023.33	19321.8
1020.47	19232.7
1017.61	19154.2
1014.75	19382.4
1011.89	19303.9
1009.03	19474.2
1006.16	19361.6
1003.29	19513.4
1000.43	19406.2
997.556	19664.8
994.684	19333.1
991.811	19800.3
988.936	19622.7
986.059	19325.3
983.182	19460.9
980.302	19640.5
977.421	19627.3
974.538	19674
971.654	19775.2
968.768	19977.6
965.881	19831.8
962.992	19834
960.102	19872.6
957.21	20059
954.316	19913.4
951.421	19887.1
948.525	19785.8
945.627	20220.1
942.727	20304.9
939.825	20231.9
936.923	20120.2
934.018	20349.4
931.112	20304.9
928.204	20306.8
925.295	20311.3
922.385	20107.1
919.472	20559.7
916.558	20409.6
913.643	20246.8
910.726	20392.6
907.807	20528
904.887	20450.2
901.965	20159.4
899.042	20256.2
896.117	20732.3
893.19	20508.4
890.262	20633
887.332	20816.3
884.401	20666.9
881.468	21080.1
878.533	20969
875.597	21123.6
872.66	21244.9
869.72	20756.3
866.779	21288.1
863.837	21577.3
860.893	21591
857.947	21592
855	21585.4
852.051	21634.6
849.1	21564.4
846.148	21313.9
843.195	21487.7
840.239	21130.9
837.282	21246.2
834.324	21460.2
831.364	21456.1
828.402	21171
825.438	21164.5
822.473	21241.5
819.507	21144
816.539	21132.5
813.569	21141.1
810.597	21518.2
807.624	21203.8
804.649	21068.8
801.673	21377.2
798.695	21113.7
795.716	21444.5
792.734	21495.7
789.751	21592
786.767	21323.9
783.781	21545.8
780.793	21571.7
777.804	21705.4
774.813	21628.3
771.82	21724.3
768.826	21835.1
765.83	21978.3
762.832	21713.6
759.833	21979.3
756.832	21727.3
753.83	21782.9
750.826	22088
747.82	21953.6
744.812	21911.7
741.803	21884.7
738.793	21705.8
735.78	21890.6
732.766	21876.1
729.75	22003.3
726.733	21852.1
723.714	21979.2
720.693	21989.5
717.671	22232.9
714.647	22158.7
711.621	22037.5
708.594	22592.6
705.565	22280.7
702.534	22268.4
699.502	22543
696.468	22394.7
693.433	22799.8
690.395	22572.5
687.356	22523.1
684.316	22673.4
681.273	22599.3
678.229	22786.4
675.183	22879.7
672.136	22638.3
669.087	22876.7
666.036	22925.5
662.984	22822
659.93	22868.3
656.874	22924.4
653.817	22951
650.757	22560.8
647.697	22717.4
644.634	23013.4
641.57	22990.9
638.504	23166.5
635.436	23026.6
632.367	23263.1
629.296	23184.3
626.223	23327.7
623.149	23195.3
620.073	23348.2
616.995	23303.6
613.915	23444.1
610.834	23489.6
607.751	23607.9
604.666	23402.8
601.58	23241.6
598.492	23665.8
595.402	23715.8
592.311	23722.1
589.218	23544.1
586.123	23506.8
583.026	23496.2
579.928	23536.4
576.828	23194.4
573.726	23440.2
570.622	23886.2
567.517	23600.1
564.41	23741.4
561.301	23590.8
558.191	23729.5
555.079	23610.3
551.965	23708
548.849	23976.4
545.732	23667.2
542.613	24255.1
539.492	23806.7
536.37	24112.8
533.245	23998.6
530.119	24062
526.991	24182.8
523.862	24049.6
520.731	24227.7
517.598	24250.1
514.463	24377.8
511.326	24345
508.188	24326.7
505.048	23957.3
501.906	23719.6
498.763	23563.2
495.618	23676.4
492.471	24018.2
489.322	23921.5
486.171	23841.5
483.019	23966.1
479.865	23929
476.709	24036.8
473.552	24101.7
470.392	24050.2
467.231	24316.7
464.068	24360
460.903	24891.3
457.737	24811.1
454.569	24858.8
451.399	24724.2
448.227	24686.7
445.054	24772.1
441.878	25136.1
438.701	24940.3
435.522	24836.6
432.342	25374.4
429.159	25016.1
425.975	24618.3
422.789	24889.2
419.601	24581.2
416.411	24823.7
413.22	24617.1
410.027	24807.6
406.832	24704.4
403.635	25162
400.437	25124.4
397.236	24533.9
394.034	24681.7
390.83	24887.8
387.624	24965.1
384.417	25369.5
381.207	25383.2
377.996	25455.3
374.783	25275.3
371.568	25459.3
368.352	25058
365.133	25165.1
361.913	24946
358.691	24959.8
355.467	24996.9
352.241	24906.1
349.014	24692.2
345.784	25342.4
342.553	25116.9
339.32	24873.1
336.085	25056.1
332.849	25292.2
329.61	25474.7
326.37	25393.2
323.128	25351.1
319.884	24918.4
316.638	24853.5
313.39	25167.3
310.141	24740
306.889	25122.7
303.636	25115.4
300.381	24663.4
297.124	24852.1
293.866	24787.4
290.605	24646.9
287.343	24598.4
284.079	24694.7
280.812	24956.2
277.544	24714.9
274.275	24944
271.003	24739.6
267.729	24821.8
264.454	24910.7
261.177	25017.8
257.898	24880.1
254.617	25023.7
251.334	25123.7
248.049	24853.7
244.763	25054.1
241.474	24905.3
238.184	24948.1
234.892	25004.5
231.598	24726.3
228.302	24891.9
225.004	24745.9
221.704	25024.9
218.403	24754
215.099	25150.8
211.794	25063.9
208.487	24922.6
205.178	24826.8
201.867	25274.7
198.554	24995.4
195.239	24935.9
191.922	24980.5
188.604	24844.2
185.283	24629.1
181.961	24599.2
178.637	24571.6
175.311	24769.5
171.983	24604.4
168.653	24583.6
165.321	24650.5
161.987	24492.5
158.651	24494.2
155.314	24480.2
151.974	24504.4
148.633	24575.6
145.29	24662.5
141.944	24845.6
138.597	25046.5
135.248	24944.8
131.897	25006.6
128.544	25148.8
125.19	25174.6
121.833	25388
118.474	25355.6
115.114	25336.6
111.751	25108
108.387	23934.6
105.02	22201.3
101.652	20901.8
100.529	20570.6