File: Spicy-Raman/model_train_and_validate/Raman_Data/cellulose/20180911 NBay_Control 4c_1.txt
3201.2	122.125
3199.42	151.558
3197.64	214.61
3195.85	201.894
3194.07	201.803
3192.28	214.318
3190.5	210.021
3188.71	180.536
3186.93	226.617
3185.14	184.567
3183.35	159.326
3181.56	226.308
3179.77	251.34
3177.98	188.419
3176.19	121.371
3174.4	192.432
3172.6	255.065
3170.81	175.539
3169.01	250.656
3167.22	187.907
3165.42	166.952
3163.62	196.08
3161.82	229.351
3160.03	266.76
3158.23	170.815
3156.42	199.888
3154.62	303.858
3152.82	228.83
3151.02	153.87
3149.21	199.525
3147.41	245.137
3145.6	174.425
3143.8	170.195
3141.99	261.4
3140.18	261.281
3138.37	227.998
3136.56	140.88
3134.75	173.949
3132.94	169.73
3131.13	161.377
3129.32	198.528
3127.5	235.644
3125.69	185.95
3123.87	260.212
3122.05	260.093
3120.24	251.721
3118.42	148.489
3116.6	226.755
3114.78	259.619
3112.96	218.31
3111.14	238.796
3109.32	226.341
3107.49	176.877
3105.67	242.581
3103.85	164.387
3102.02	184.851
3100.19	221.719
3098.37	180.578
3096.54	192.802
3094.71	295.221
3092.88	180.33
3091.05	200.731
3089.22	245.681
3087.39	204.64
3085.55	192.274
3083.72	265.789
3081.88	155.313
3080.05	134.816
3078.21	159.255
3076.37	265.303
3074.54	199.906
3072.7	240.593
3070.86	224.179
3069.02	236.299
3067.18	240.263
3065.33	244.224
3063.49	244.112
3061.65	219.6
3059.8	215.435
3057.96	199.084
3056.11	235.543
3054.26	271.968
3052.41	271.843
3050.56	247.385
3048.71	206.736
3046.86	283.625
3045.01	255.145
3043.16	267.172
3041.31	149.71
3039.45	250.75
3037.6	238.507
3035.74	278.804
3033.89	205.978
3032.03	262.401
3030.17	205.789
3028.31	233.927
3026.45	298.322
3024.59	253.86
3022.73	285.965
3020.86	185.188
3019	277.654
3017.14	265.46
3015.27	273.379
3013.4	261.198
3011.54	224.928
3009.67	252.928
3007.8	252.812
3005.93	212.585
3004.06	224.515
3002.19	240.441
3000.32	272.374
2998.44	268.245
2996.57	284.129
2994.7	219.999
2992.82	263.877
2990.94	279.741
2989.07	259.64
2987.19	251.535
2985.31	239.447
2983.43	299.17
2981.55	283.084
2979.67	302.88
2977.78	266.889
2975.9	326.49
2974.02	270.623
2972.13	381.88
2970.25	373.752
2968.36	313.965
2966.47	381.352
2964.58	313.676
2962.69	396.875
2960.8	476.03
2958.91	400.473
2957.02	352.729
2955.13	308.991
2953.23	304.889
2951.34	308.706
2949.44	324.387
2947.55	379.594
2945.65	418.942
2943.75	351.59
2941.85	300.096
2939.95	402.574
2938.05	390.553
2936.15	346.997
2934.25	425.663
2932.34	413.648
2930.44	330.765
2928.53	385.714
2926.63	432.744
2924.72	346.035
2922.81	385.179
2920.9	436.072
2918.99	357.335
2917.08	349.319
2915.17	392.312
2913.26	454.871
2911.35	388.029
2909.43	466.202
2907.52	426.828
2905.6	442.286
2903.68	438.169
2901.77	520.084
2899.85	433.854
2897.93	425.839
2896.01	495.931
2894.09	472.282
2892.17	401.838
2890.24	440.647
2888.32	405.363
2886.39	381.799
2884.47	490.657
2882.54	463.183
2880.61	517.435
2878.69	443.309
2876.76	481.972
2874.83	392.392
2872.89	372.793
2870.96	477.419
2869.03	488.836
2867.1	383.907
2865.16	612.414
2863.23	937.566
2861.29	414.351
2859.35	402.546
2857.41	502.948
2855.47	402.171
2853.53	440.636
2851.59	370.889
2849.65	382.302
2847.71	436.161
2845.77	335.649
2843.82	470.461
2841.88	408.571
2839.93	389.117
2837.98	450.549
2836.03	434.943
2834.08	465.518
2832.13	396.083
2830.18	449.71
2828.23	418.765
2826.28	414.729
2824.32	372.315
2822.37	398.996
2820.41	448.661
2818.46	436.953
2816.5	417.594
2814.54	398.252
2812.58	432.514
2810.62	459.092
2808.66	447.406
2806.7	389.864
2804.74	473.73
2802.77	538.426
2800.81	488.555
2798.84	400.58
2796.88	476.658
2794.91	476.436
2792.94	453.354
2790.97	441.719
2789	544.278
2787.03	464.131
2785.06	418.283
2783.09	444.693
2781.11	471.078
2779.14	467.06
2777.16	538.955
2775.18	481.797
2773.21	443.653
2771.23	428.284
2769.25	469.755
2767.27	503.614
2765.29	382.265
2763.31	469.095
2761.32	510.469
2759.34	434.64
2757.35	483.546
2755.37	456.888
2753.38	490.641
2751.39	475.321
2749.4	569.363
2747.41	516.332
2745.42	470.885
2743.43	421.715
2741.44	395.172
2739.45	552.981
2737.45	488.801
2735.46	518.637
2733.46	522.15
2731.46	570.715
2729.46	495.388
2727.47	547.672
2725.47	558.662
2723.46	550.904
2721.46	603.088
2719.46	542.898
2717.46	550.127
2715.45	583.534
2713.45	575.781
2711.44	526.928
2709.43	511.739
2707.42	545.1
2705.41	585.893
2703.4	615.457
2701.39	507.047
2699.38	510.534
2697.37	599.688
2695.35	558.453
2693.34	595.402
2691.32	583.963
2689.3	632.018
2687.29	579.696
2685.27	534.851
2683.25	527.174
2681.23	582.586
2679.2	619.401
2677.18	619.109
2675.16	544.707
2673.13	570.376
2671.11	621.934
2669.08	562.437
2667.05	625.045
2665.03	536.028
2663	672.49
2660.97	590.92
2658.93	553.726
2656.9	682.605
2654.87	597.458
2652.83	615.607
2650.8	615.316
2648.76	637.121
2646.73	633.139
2644.69	688.029
2642.65	636.217
2640.61	628.564
2638.57	631.941
2636.53	620.624
2634.48	9719.73
2632.44	642.05
2630.39	663.748
2628.35	601.122
2626.3	747.383
2624.25	644.495
2622.2	629.549
2620.15	647.543
2618.1	676.489
2616.05	720.028
2614	683.154
2611.95	690.133
2609.89	682.506
2607.84	711.366
2605.78	747.491
2603.72	615.932
2601.66	750.424
2599.6	669.964
2597.54	756.99
2595.48	803.92
2593.42	643.558
2591.36	734.106
2589.29	737.39
2587.23	776.977
2585.16	689.512
2583.09	776.239
2581.02	797.623
2578.95	768.252
2576.88	699.067
2574.81	800.105
2572.74	774.393
2570.67	799.343
2568.59	708.582
2566.52	841.944
2564.44	827.096
2562.36	750.891
2560.29	783.008
2558.21	869.194
2556.13	742.608
2554.05	825.127
2551.96	813.929
2549.88	723.548
2547.8	823.947
2545.71	881.095
2543.63	805.188
2541.54	847.919
2539.45	937.293
2537.36	854.288
2535.27	774.95
2533.18	814.027
2531.09	788.548
2528.99	874.153
2526.9	866.574
2524.81	780.26
2522.71	822.816
2520.61	822.423
2518.51	882.789
2516.41	843.071
2514.31	821.244
2512.21	892.23
2510.11	848.996
2508.01	823.631
2505.9	944.406
2503.8	940.392
2501.69	804.648
2499.59	900.347
2497.48	850.118
2495.37	853.266
2493.26	938.143
2491.15	909.279
2489.03	891.092
2486.92	965.183
2484.81	879.598
2482.69	925.262
2480.58	949.622
2478.46	995.208
2476.34	1015.97
2474.22	955.333
2472.1	1103.41
2469.98	986.23
2467.86	1003.42
2465.73	995.878
2463.61	924.804
2461.48	970.225
2459.36	1022.65
2457.23	948.145
2455.1	1025.2
2452.97	1003.58
2450.84	960.857
2448.71	970.949
2446.58	963.45
2444.44	1064.91
2442.31	987.113
2440.17	26140.7
2438.04	1021.26
2435.9	936.58
2433.76	1065.86
2431.62	1170.47
2429.48	991.272
2427.34	1053.81
2425.19	1144.29
2423.05	1098.27
2420.9	1143.19
2418.76	1107.69
2416.61	1061.76
2414.46	1078.7
2412.31	1085.16
2410.16	1077.66
2408.01	1087.6
2405.86	1027.84
2403.71	1069.13
2401.55	1200.89
2399.4	1158.56
2397.24	1220.6
2395.08	1087.93
2392.93	1125.62
2390.77	1086.88
2388.61	1311.95
2386.44	1103.17
2384.28	1175.46
2382.12	1136.76
2379.95	1184.71
2377.79	1159.9
2375.62	1128.2
2373.45	1297.14
2371.28	1351.83
2369.11	1268.24
2366.94	1233.09
2364.77	1222.13
2362.6	1269.85
2360.42	1241.65
2358.25	1199.68
2356.07	1240.44
2353.89	1195.07
2351.72	1325.3
2349.54	1314.34
2347.36	1251.8
2345.17	1330.25
2342.99	1264.33
2340.81	1301.49
2338.62	1335.18
2336.44	1259.06
2334.25	1381.89
2332.06	1309.25
2329.87	1264.08
2327.68	1359.34
2325.49	1249.16
2323.3	1306.71
2321.11	1374.45
2318.91	1274.68
2316.72	1386.78
2314.52	1416.84
2312.32	1412.73
2310.12	1381.35
2307.93	1421.59
2305.72	1345.93
2303.52	1403.18
2301.32	1382.07
2299.12	1429.03
2296.91	1326.31
2294.7	1383.45
2292.5	1342.01
2290.29	1361.73
2288.08	1473.08
2285.87	1452
2283.66	1410.61
2281.45	1409.92
2279.23	1483.76
2277.02	1499.97
2274.8	1533.08
2272.58	1495.12
2270.37	1440.3
2268.15	1409.18
2265.93	1540.22
2263.71	1498.96
2261.48	1430.74
2259.26	1457.02
2257.04	1368.67
2254.81	1516.25
2252.58	1512.15
2250.36	1541.7
2248.13	1567.87
2245.9	1499.84
2243.67	1562.97
2241.43	1538.69
2239.2	1514.43
2236.97	1533.83
2234.73	1492.83
2232.5	1528.98
2230.26	1528.23
2228.02	1507.39
2225.78	1587
2223.54	1559.45
2221.3	1625.59
2219.05	1651.54
2216.81	1613.97
2214.56	1696.68
2212.32	1649.11
2210.07	1715.04
2207.82	1634.16
2205.57	1676.69
2203.32	1735.84
2201.07	1761.63
2198.82	1833.99
2196.56	1650.12
2194.31	1719.14
2192.05	1734.91
2189.8	1797.18
2187.54	1809.58
2185.28	1775.5
2183.02	1734.83
2180.75	1780.39
2178.49	1782.83
2176.23	1904.5
2173.96	1800.94
2171.7	1786.82
2169.43	1848.78
2167.16	1884.24
2164.89	1813.92
2162.62	1809.73
2160.35	1808.84
2158.08	1817.85
2155.8	1886.2
2153.53	1881.98
2151.25	1894.23
2148.97	1919.64
2146.69	1866.04
2144.41	1940.78
2142.13	1933.24
2139.85	1853.42
2137.57	2003.6
2135.28	1868.01
2133	1903.19
2130.71	1889.13
2128.43	1911.14
2126.14	1900.37
2123.85	1778.26
2121.56	1967.24
2119.26	1864.85
2116.97	1984.92
2114.68	1987.21
2112.38	2009.09
2110.08	2014.63
2107.79	1971.21
2105.49	1983.28
2103.19	1917.1
2100.89	2069.31
2098.58	1993.37
2096.28	2116.1
2093.98	1867.75
2091.67	2019.69
2089.36	2051.2
2087.06	2069.68
2084.75	2179.07
2082.44	2022.19
2080.13	2160.69
2077.81	2127.2
2075.5	2226.62
2073.18	2099.17
2070.87	2188.8
2068.55	2203.89
2066.23	2176.92
2063.91	2069.15
2061.59	2106.91
2059.27	2199.53
2056.95	2240.4
2054.62	2116.68
2052.3	2202.71
2049.97	2195.17
2047.65	2300.4
2045.32	2267.06
2042.99	2275.59
2040.66	2242.29
2038.32	2192.94
2035.99	2204.71
2033.66	2251.8
2031.32	2311.68
2028.98	2387.55
2026.65	2254.86
2024.31	2237.71
2021.97	2351.95
2019.63	2309.14
2017.28	2295.19
2014.94	2297.25
2012.59	2366.46
2010.25	2362.09
2007.9	2328.96
2005.55	2263.94
2003.2	2384.09
2000.85	2421.19
1998.5	2413.6
1996.15	2466.58
1993.79	2471.72
1991.44	2301.75
1989.08	2373.79
1986.72	2452.12
1984.36	2374.61
1982	2516.4
1979.64	2473.86
1977.28	2507.54
1974.92	2528.5
1972.55	2543.09
1970.19	2548.16
1967.82	2572.23
1965.45	2536.12
1963.08	2566.5
1960.71	2508.28
1958.34	2573.42
1955.97	2603.73
1953.59	2529.79
1951.22	2620.07
1948.84	2596.67
1946.46	2702.59
1944.08	2729.61
1941.7	2624.28
1939.32	2622.97
1936.94	2750.69
1934.55	2793.36
1932.17	2672.48
1929.78	2793.7
1927.4	2786.02
1925.01	2721.84
1922.62	2786.37
1920.23	2832.02
1917.83	2821.19
1915.44	2763.38
1913.05	2830.89
1910.65	2782.52
1908.25	2843.69
1905.85	2886.04
1903.46	2853.34
1901.05	2880.02
1898.65	3059.66
1896.25	2976.99
1893.85	2928.71
1891.44	2939.71
1889.03	2863.45
1886.63	2999.04
1884.22	3031.77
1881.81	3014.69
1879.39	3047.38
1876.98	2999.23
1874.57	3044.32
1872.15	2990.01
1869.74	3134.36
1867.32	3095.56
1864.9	3156.01
1862.48	3132.73
1860.06	3171.41
1857.64	3219.34
1855.21	3056.84
1852.79	3228.47
1850.36	3322.66
1847.93	3200.5
1845.51	3260.64
1843.08	3120.12
1840.65	3232.68
1838.21	3234.13
1835.78	3170.87
1833.34	3378.71
1830.91	3327.75
1828.47	3215.3
1826.03	3370.52
1823.59	3313.49
1821.15	3311.82
1818.71	3350.06
1816.27	3369.85
1813.82	3257.72
1811.38	3320.46
1808.93	3422.97
1806.48	3442.68
1804.03	3450.13
1801.58	3518.76
1799.13	3461.93
1796.68	3551.88
1794.22	3366.77
1791.77	3438.35
1789.31	3427.46
1786.85	3556.89
1784.39	3564.24
1781.93	3614.24
1779.47	3417.47
1777.01	3607.53
1774.54	3557.02
1772.08	3582.59
1769.61	3574.69
1767.14	3539.46
1764.67	3744.15
1762.2	3745.29
1759.73	3719.12
1757.26	3696.01
1754.78	3751.71
1752.31	3665
1749.83	3756.99
1747.35	3664.3
1744.87	3856
1742.39	3678.72
1739.91	3779.57
1737.42	3608.55
1734.94	3923.62
1732.45	3692.36
1729.97	3714.6
1727.48	3733.81
1724.99	3852.39
1722.5	3868.49
1720.01	3731.12
1717.51	3801.4
1715.02	3817.5
1712.52	3824.57
1710.03	3927.72
1707.53	3913.71
1705.03	4013.71
1702.53	3975.69
1700.02	3901.74
1697.52	4034.53
1695.02	3909.73
1692.51	3988.53
1690	4142.01
1687.49	3966.53
1684.98	4107.9
1682.47	4225.25
1679.96	4106.7
1677.45	4009.14
1674.93	4239.65
1672.41	4073.59
1669.9	4134.05
1667.38	4212.32
1664.86	4275.62
1662.34	4178.27
1659.81	4327.72
1657.29	4200.74
1654.76	4272.82
1652.24	4276.57
1649.71	4283.28
1647.18	4224.76
1644.65	4195.93
1642.12	4439.6
1639.58	4262.67
1637.05	4352.21
1634.51	4349.98
1631.98	4332.97
1629.44	4528.68
1626.9	4482.07
1624.36	4456.16
1621.81	4465.67
1619.27	4433.9
1616.73	4387.43
1614.18	4358.67
1611.63	4477.12
1609.08	4466
1606.53	4681.3
1603.98	4623.06
1601.43	4491.43
1598.87	4527.29
1596.32	4527.9
1593.76	4584.23
1591.2	4567.22
1588.65	4594.17
1586.08	4650.38
1583.52	4829.45
1580.96	4625.11
1578.4	4637.35
1575.83	4634.97
1573.26	4597.53
1570.69	4624.36
1568.12	4721.18
1565.55	4602.1
1562.98	4748.39
1560.41	4716.8
1557.83	4699.81
1555.25	4694.48
1552.68	4729.88
1550.1	4858.27
1547.52	4719.19
1544.93	4798.08
1542.35	4775.28
1539.77	4888.87
1537.18	4906.65
1534.59	4779.48
1532.01	4846.54
1529.42	4896.15
1526.82	4919.67
1524.23	4902.67
1521.64	5079.37
1519.04	4998.73
1516.45	4909.51
1513.85	4970.47
1511.25	4953.47
1508.65	5115.27
1506.05	4997.34
1503.44	5121.5
1500.84	5026.72
1498.23	5222.66
1495.63	4932.36
1493.02	4993.04
1490.41	5004.82
1487.8	5033.82
1485.18	5059.91
1482.57	5289.64
1479.95	5183.68
1477.34	5393.05
1474.72	5267.09
1472.1	5192.79
1469.48	5273.07
1466.86	5224.58
1464.23	5333.34
1461.61	5196.31
1458.98	5404.89
1456.35	5165.23
1453.72	5313.71
1451.09	5302.4
1448.46	5447.8
1445.83	5493.38
1443.19	5319.75
1440.56	5336.9
1437.92	5447.85
1435.28	5507.54
1432.64	5419.46
1430	5408.13
1427.36	5550.02
1424.71	5586.83
1422.07	5430.86
1419.42	5467.7
1416.77	5592.27
1414.12	5521.43
1411.47	5560.98
1408.82	5526.98
1406.17	5665.38
1403.51	5648.31
1400.85	5783.67
1398.2	5631.13
1395.54	5757.9
1392.88	5915.54
1390.21	5963.15
1387.55	5906.55
1384.89	6010.39
1382.22	6159.12
1379.55	6060.33
1376.88	6161.11
1374.21	6070.84
1371.54	6008.73
1368.87	6058.89
1366.19	5963.2
1363.52	5976.89
1360.84	5931.76
1358.16	6032.22
1355.48	6110.2
1352.8	6168.52
1350.11	6053.49
1347.43	6243.06
1344.74	6153.24
1342.06	6191.88
1339.37	6236.04
1336.68	6146.36
1333.99	6310.3
1331.29	6201.18
1328.6	6167.31
1325.9	6069.5
1323.21	6222.01
1320.51	6127.04
1317.81	6032.18
1315.11	6048.44
1312.4	6103.53
1309.7	6111.41
1306.99	6135.91
1304.29	6102.22
1301.58	5968.89
1298.87	6065.37
1296.16	6150.68
1293.44	6222.08
1290.73	6044.75
1288.01	5983.59
1285.3	6057.71
1282.58	6106.93
1279.86	6048.58
1277.14	6031.62
1274.41	5943.07
1271.69	6019.76
1268.96	5986.33
1266.24	5900.68
1263.51	5908.57
1260.78	6034.55
1258.05	5798.02
1255.31	5901.97
1252.58	6184.06
1249.84	5975.23
1247.11	5865.23
1244.37	5941.54
1241.63	6020.5
1238.88	5839.54
1236.14	5913
1233.4	5975.45
1230.65	6065.14
1227.9	5835.39
1225.15	5862.32
1222.4	5908.29
1219.65	6033.25
1216.9	5904.77
1214.14	5904.37
1211.39	5808.74
1208.63	5879.08
1205.87	6000.99
1203.11	5924.47
1200.35	5953.91
1197.59	6021.31
1194.82	6069.65
1192.05	5944.45
1189.29	5952.14
1186.52	5951.69
1183.75	6048.67
1180.97	5910.22
1178.2	5926.01
1175.43	6109.3
1172.65	6092.56
1169.87	6027.24
1167.09	6080.69
1164.31	6258.12
1161.53	6327.55
1158.74	6313.42
1155.96	6417.74
1153.17	6460.07
1150.38	6456.64
1147.59	6353.76
1144.8	6401.42
1142.01	6403.38
1139.21	6332.89
1136.42	6439.48
1133.62	6685.35
1130.82	6579.98
1128.02	6713.04
1125.22	6645.23
1122.42	6978.72
1119.61	6865.39
1116.8	6736.15
1114	6660.45
1111.19	6723.63
1108.38	6800.08
1105.56	6761.79
1102.75	6904.75
1099.93	7281.94
1097.12	7483.03
1094.3	7348.67
1091.48	7054.89
1088.66	6995.31
1085.84	6603.74
1083.01	6732.96
1080.19	6625.87
1077.36	6553.37
1074.53	6364.32
1071.7	6602
1068.87	6532.27
1066.03	6446.74
1063.2	6588.76
1060.36	6550.87
1057.52	6623.99
1054.68	6726.07
1051.84	6930.98
1049	6842.85
1046.16	6657.26
1043.31	6553.56
1040.46	6744.94
1037.61	6433.35
1034.76	6500.93
1031.91	6486.93
1029.06	6522.87
1026.2	6548.26
1023.35	6376.73
1020.49	6394.3
1017.63	6508.87
1014.77	6384.81
1011.91	6507.12
1009.04	6411.99
1006.18	6531.53
1003.31	6598.63
1000.44	6459.16
997.572	6596.76
994.7	6569.72
991.826	6662.74
988.952	6693.07
986.075	6514.8
983.197	6516.5
980.318	6486.95
977.437	6496.47
974.554	6576.21
971.67	6668.87
968.784	6714.65
965.897	6690.25
963.008	6478.98
960.118	6618.18
957.226	6635.35
954.332	6706.92
951.437	6648.91
948.541	6614.26
945.642	6618.45
942.743	6767.45
939.841	6766.38
936.938	6705.89
934.034	6611.91
931.128	6711.55
928.22	6759.5
925.311	6802.24
922.4	6777.95
919.488	6800.03
916.574	6840.1
913.659	6761.81
910.742	6830.13
907.823	6900.94
904.903	6915.18
901.981	6770.28
899.058	6838.43
896.133	7001.36
893.206	6941.2
890.278	6888.78
887.348	6777.54
884.417	6832.7
881.484	6777.86
878.549	6976.06
875.613	7000.36
872.676	7096.11
869.736	7071.85
866.795	7190.4
863.853	7043.78
860.909	7095.99
857.963	7071.77
855.016	7284.19
852.067	7188.68
849.117	7200.02
846.164	7389.16
843.211	6989.1
840.255	7119.77
837.298	7141.26
834.34	7010.64
831.38	7404.53
828.418	7208.08
825.455	7105.47
822.49	7126.89
819.523	6973.87
816.555	7124.17
813.585	7016.77
810.614	7310.72
807.64	7195.76
804.666	7189.31
801.689	7278.61
798.711	7319.96
795.732	7227.88
792.751	7493.07
789.768	7292.89
786.783	7346.69
783.797	7294.97
780.809	7378.82
777.82	7482.65
774.829	7496.11
771.836	7564.67
768.842	7467.88
765.846	7406.22
762.849	7472.21
759.849	7538.13
756.849	7613.96
753.846	7542.36
750.842	7643.07
747.836	7721.21
744.829	7385.36
741.82	7418.69
738.809	7466.92
735.797	7604.72
732.783	7518.45
729.767	7486.97
726.75	7599.66
723.731	7508.56
720.71	7576.43
717.688	7686.4
714.664	7682.18
711.638	7655.65
708.611	7619.24
705.582	7709.13
702.551	7764.28
699.519	7918.27
696.485	7805.17
693.449	7855.22
690.412	7870.65
687.373	7715.8
684.332	7714.02
681.29	7929.14
678.246	7673.5
675.2	7787.45
672.153	7881.59
669.104	7899.38
666.053	7963.85
663.001	7821.89
659.946	7891.23
656.891	8012.03
653.833	8059.11
650.774	8115.95
647.713	7944.88
644.651	8141.27
641.586	8002.18
638.521	8173.86
635.453	8118.01
632.384	8162.38
629.313	8089.5
626.24	8185.09
623.166	8070.81
620.089	8117.53
617.012	8264.1
613.932	8274.13
610.851	8186.81
607.768	8177.41
604.683	8189.9
601.597	8355.44
598.509	8280.39
595.419	8474.81
592.328	8232.41
589.235	8283.6
586.14	8249.93
583.043	8451.19
579.945	8264.99
576.845	8209.61
573.743	8316.26
570.639	8405.87
567.534	8268.39
564.427	8461.7
561.318	8379.81
558.208	8365.51
555.096	8204.25
551.982	8539.24
548.866	8452.66
545.749	8306.03
542.63	8243.72
539.509	8537.07
536.387	8443.47
533.262	8457.97
530.136	8719.53
527.009	8765.02
523.879	8561.26
520.748	8721.73
517.615	8819.78
514.48	8613.93
511.344	8697.59
508.205	8676.01
505.065	8589.98
501.924	8360.83
498.78	8544.61
495.635	8427.79
492.488	8611.33
489.339	8647
486.189	8485.09
483.036	8577.88
479.882	8608.74
476.726	8836.79
473.569	8732.11
470.409	8957.45
467.248	8670.16
464.085	9070.72
460.921	9037.21
457.754	9077.15
454.586	9091
451.416	9083.54
448.244	8938.97
445.071	8945.78
441.896	9184
438.718	9214.26
435.54	9414.32
432.359	9119.06
429.176	9158.71
425.992	8915.73
422.806	8950.73
419.618	8828.1
416.429	8792.58
413.237	8912.17
410.044	8937.7
406.849	9047.68
403.653	9183.33
400.454	9511.07
397.254	9037.12
394.051	8865.77
390.847	9024.62
387.642	9407.83
384.434	9517.09
381.225	9929.96
378.014	9716.54
374.801	9643.39
371.586	9283.41
368.369	9205.92
365.151	9331.2
361.93	9179.24
358.708	9134.51
355.485	9427.08
352.259	9324.13
349.031	9353.72
345.802	9473.83
342.571	9238.73
339.338	9303.1
336.103	9156.44
332.866	9394.53
329.628	9384.59
326.388	9407.06
323.145	9216.72
319.901	9377.94
316.656	9141.61
313.408	9395.04
310.158	9272.04
306.907	9068.45
303.654	9146.29
300.399	9062.79
297.142	9350.06
293.883	9294.14
290.623	9120.99
287.361	9113.53
284.096	9179.58
280.83	9252.43
277.562	9164.58
274.292	9161.68
271.021	9142.73
267.747	9155.86
264.472	9269.72
261.195	9118.02
257.916	9238.61
254.635	9546.48
251.352	9276.09
248.067	9174.93
244.781	9201.66
241.492	9016.29
238.202	9125.11
234.91	9240.64
231.616	9269.53
228.32	9150.5
225.022	9238.52
221.722	9178.71
218.421	9055.38
215.117	9392.99
211.812	9224.29
208.505	9284.79
205.196	9247.77
201.885	9190.41
198.572	9072
195.257	9229.7
191.94	9122.69
188.622	9178.5
185.301	9055.82
181.979	9303.44
178.655	9248.5
175.329	9290.56
172.001	9213.15
168.671	9093.04
165.339	9315.15
162.005	9276.09
158.67	9282.02
155.332	9222.79
151.993	9156.89
148.651	9086.57
145.308	9339.3
141.963	9192.73
138.616	9223.31
135.266	9200.11
131.915	9194.84
128.563	9151.55
125.208	9128.42
121.851	9129.89
118.492	9334.52
115.132	9130.58
111.769	8813.13
108.405	8498.28
105.038	7789.51
101.67	7052.62
100.547	6833.14