File: Spicy-Raman/model_train_and_validate/Raman_Data/cellulose/20180911 NBay_Control 4f_1.txt
3201.2	244.251
3199.42	248.387
3197.64	197.778
3195.85	214.513
3194.07	239.641
3192.28	239.532
3190.5	260.426
3188.71	163.742
3186.93	184.651
3185.14	213.93
3183.35	289.303
3181.56	310.126
3179.77	255.529
3177.98	251.226
3176.19	226
3174.4	196.615
3172.6	255.065
3170.81	313.462
3169.01	125.328
3167.22	283.948
3165.42	229.559
3163.62	241.971
3161.82	183.481
3160.03	262.591
3158.23	224.976
3156.42	279.01
3154.62	208.122
3152.82	245.472
3151.02	261.995
3149.21	286.816
3147.41	290.841
3145.6	220.108
3143.8	232.461
3141.99	186.714
3140.18	294.459
3138.37	223.853
3136.56	198.89
3134.75	207.083
3132.94	223.547
3131.13	285.514
3129.32	177.848
3127.5	281.119
3125.69	289.256
3123.87	276.733
3122.05	280.735
3120.24	280.607
3118.42	276.355
3116.6	197.895
3114.78	239.014
3112.96	218.31
3111.14	317.023
3109.32	259.264
3107.49	300.28
3105.67	230.246
3103.85	242.47
3102.02	250.575
3100.19	312.05
3098.37	233.93
3096.54	250.232
3094.71	291.121
3092.88	319.677
3091.05	258.083
3089.22	192.45
3087.39	315.146
3085.55	261.82
3083.72	310.769
3081.88	290.191
3080.05	302.314
3078.21	249.091
3076.37	318.364
3074.54	261.102
3072.7	293.606
3070.86	260.863
3069.02	346.3
3067.18	244.335
3065.33	309.35
3063.49	264.454
3061.65	329.4
3059.8	292.666
3057.96	325.035
3056.11	369.558
3054.26	320.678
3052.41	243.442
3050.56	291.996
3048.71	312.13
3046.86	332.246
3045.01	275.395
3043.16	194.307
3041.31	400.575
3039.45	246.706
3037.6	295.102
3035.74	274.764
3033.89	306.948
3032.03	314.881
3030.17	318.771
3028.31	326.692
3026.45	282.196
3024.59	362.657
3022.73	314.159
3020.86	305.963
3019	350.086
3017.14	273.504
3015.27	297.5
3013.4	385.769
3011.54	313.293
3009.67	397.459
3007.8	337.082
3005.93	328.905
3004.06	332.763
3002.19	384.706
3000.32	384.529
2998.44	324.297
2996.57	336.153
2994.7	371.998
2992.82	395.816
2990.94	387.641
2989.07	391.457
2987.19	391.276
2985.31	407.059
2983.43	370.971
2981.55	430.607
2979.67	454.32
2977.78	370.458
2975.9	465.846
2974.02	421.854
2972.13	409.725
2970.25	417.488
2968.36	405.373
2966.47	520.386
2964.58	416.911
2962.69	440.531
2960.8	432.394
2958.91	467.88
2957.02	443.884
2955.13	475.371
2953.23	467.232
2951.34	502.636
2949.44	518.227
2947.55	514.034
2945.65	470.321
2943.75	509.608
2941.85	544.91
2939.95	540.712
2938.05	520.737
2936.15	516.553
2934.25	480.842
2932.34	476.68
2930.44	578.839
2928.53	613.994
2926.63	523.227
2924.72	613.426
2922.81	565.977
2920.9	616.786
2918.99	655.768
2917.08	604.44
2915.17	631.622
2913.26	607.802
2911.35	607.52
2909.43	646.415
2907.52	646.115
2905.6	806.291
2903.68	672.902
2901.77	742.977
2899.85	719.181
2897.93	699.313
2896.01	718.514
2894.09	679.149
2892.17	710.044
2890.24	713.614
2888.32	701.59
2886.39	705.16
2884.47	669.786
2882.54	685.044
2880.61	603.025
2878.69	769.958
2876.76	649.107
2874.83	586.645
2872.89	664.037
2870.96	609.388
2869.03	756.531
2867.1	709.646
2865.16	961.258
2863.23	1340.49
2861.29	607.972
2859.35	565.112
2857.41	626.751
2855.47	552.985
2853.53	572.054
2851.59	529.29
2849.65	641.031
2847.71	598.274
2845.77	648.15
2843.82	597.717
2841.88	635.983
2839.93	535.518
2837.98	639.241
2836.03	592.754
2834.08	588.631
2832.13	634.502
2830.18	622.675
2828.23	610.859
2826.28	591.373
2824.32	602.612
2822.37	579.312
2820.41	571.372
2818.46	628.599
2816.5	532.527
2814.54	647.159
2812.58	620.064
2810.62	692.464
2808.66	619.485
2806.7	619.195
2804.74	741.159
2802.77	702.626
2800.81	652.679
2798.84	679.079
2796.88	602.496
2794.91	625.083
2792.94	670.507
2790.97	674.002
2789	707.942
2787.03	631.523
2785.06	680.661
2783.09	615.729
2781.11	600.244
2779.14	672.111
2777.16	709.751
2775.18	735.974
2773.21	652.207
2771.23	735.284
2769.25	689.48
2767.27	764.888
2765.29	635.846
2763.31	699.86
2761.32	684.406
2759.34	748.336
2757.35	706.431
2755.37	724.979
2753.38	758.606
2751.39	735.616
2749.4	716.417
2747.41	780.151
2745.42	806.155
2743.43	771.888
2741.44	700.019
2739.45	692.166
2737.45	752.001
2735.46	823.054
2733.46	751.294
2731.46	814.771
2729.46	784.365
2727.47	712.724
2725.47	824.871
2723.46	745.782
2721.46	719.21
2719.46	831.195
2717.46	804.608
2715.45	822.932
2713.45	818.806
2711.44	792.261
2709.43	803.094
2707.42	810.183
2705.41	873.242
2703.4	869.1
2701.39	891.06
2699.38	775.118
2697.37	808.276
2695.35	863.74
2693.34	829.841
2691.32	810.852
2689.3	866.236
2687.29	821.236
2685.27	820.848
2683.25	839.023
2681.23	797.809
2679.2	823.396
2677.18	819.3
2675.16	870.79
2673.13	829.637
2671.11	847.756
2669.08	862.156
2667.05	883.94
2665.03	879.825
2663	894.189
2660.97	978.711
2658.93	889.653
2656.9	867.093
2654.87	910.94
2652.83	906.822
2650.8	899.024
2648.76	939.11
2646.73	942.346
2644.69	971.335
2642.65	930.422
2640.61	937.333
2638.57	980.978
2636.53	954.807
2634.48	1101.18
2632.44	942.896
2630.39	953.451
2628.35	978.656
2626.3	967.202
2624.25	977.729
2622.2	988.246
2620.15	1104.85
2618.1	976.338
2616.05	994.15
2614	1026.56
2611.95	1124.66
2609.89	1124.13
2607.84	1050.63
2605.78	1079.3
2603.72	965.81
2601.66	1147.49
2599.6	1081.41
2597.54	1037.22
2595.48	1105.84
2593.42	1010.79
2591.36	1090.26
2589.29	1086.11
2587.23	1089.22
2585.16	1095.96
2583.09	1077.3
2581.02	1087.67
2578.95	1108.89
2576.88	1137.34
2574.81	1086.12
2572.74	1172.45
2570.67	1128.48
2568.59	1240.02
2566.52	1170.77
2564.44	1116.04
2562.36	1119.12
2560.29	1197.97
2558.21	1110.84
2556.13	1200.43
2554.05	1153.02
2551.96	1166.87
2549.88	1141.12
2547.8	1118.99
2545.71	1183.18
2543.63	1229.35
2541.54	1325.77
2539.45	1300
2537.36	1162.98
2535.27	1209.07
2533.18	1247.93
2531.09	1261.68
2528.99	1300.48
2526.9	1203.18
2524.81	1306.4
2522.71	1162.68
2520.61	1194.3
2518.51	1304.53
2516.41	1150.29
2514.31	1306.85
2512.21	1263.4
2510.11	1319.87
2508.01	1290.71
2505.9	1350.68
2503.8	1367.84
2501.69	1377.87
2499.59	1291.8
2497.48	1394.34
2495.37	1375.89
2493.26	1339.7
2491.15	1367.47
2489.03	1476.87
2486.92	1369.71
2484.81	1436.44
2482.69	1386.12
2480.58	1459.87
2478.46	1476.87
2476.34	1419.53
2474.22	1479
2472.1	1361.58
2469.98	1477.58
2467.86	1480.4
2465.73	1469.1
2463.61	1457.8
2461.48	1464.16
2459.36	1541.04
2457.23	1568.49
2455.1	1447.96
2452.97	1552.9
2450.84	1538.08
2448.71	1554.93
2446.58	1642.08
2444.44	1500.71
2442.31	1587.81
2440.17	1611.63
2438.04	1582.78
2435.9	1546.94
2433.76	1619.82
2431.62	1647.08
2429.48	1632.27
2427.34	1529.96
2425.19	1672.69
2423.05	1570.45
2420.9	1573.19
2418.76	1705.22
2416.61	1582.16
2414.46	1574.41
2412.31	1660.88
2410.16	1590.33
2408.01	1690.65
2405.86	1689.84
2403.71	1723.85
2401.55	1723.02
2399.4	1756.98
2397.24	1683.1
2395.08	1734.43
2392.93	1698.85
2390.77	1777.89
2388.61	1724.97
2386.44	1765.77
2384.28	1785.72
2382.12	1843.78
2379.95	1756.28
2377.79	1796.98
2375.62	1955.31
2373.45	1822.92
2371.28	2112.46
2369.11	1945.56
2366.94	1830.64
2364.77	1788.32
2362.6	1815.06
2360.42	1762.45
2358.25	1930.51
2356.07	1936.47
2353.89	1914.87
2351.72	1831.33
2349.54	1947.42
2347.36	1881.14
2345.17	1935.22
2342.99	2040.79
2340.81	1816.59
2338.62	2011.35
2336.44	1955.49
2334.25	1916.82
2332.06	2080.4
2329.87	1846.45
2327.68	2044.14
2325.49	2094.49
2323.3	1973.74
2321.11	2071.94
2318.91	2057.26
2316.72	2073.34
2314.52	1997.23
2312.32	2050.85
2310.12	2046.45
2307.93	2025
2305.72	2109.2
2303.52	2033.25
2301.32	2083.32
2299.12	2075.5
2296.91	2125.5
2294.7	2036.09
2292.5	2011.32
2290.29	2176.73
2288.08	2223.19
2285.87	2320.49
2283.66	2237.98
2281.45	2101.32
2279.23	2239.19
2277.02	2217.78
2274.8	2352.07
2272.58	2202.09
2270.37	2238.21
2268.15	2301.32
2265.93	2229.27
2263.71	2295.7
2261.48	2230.47
2259.26	2242.87
2257.04	2309.2
2254.81	2183.4
2252.58	2438.29
2250.36	2295.72
2248.13	2301.33
2245.9	2293.48
2243.67	2352.86
2241.43	2462.58
2239.2	2367.35
2236.97	2413.18
2234.73	2271.11
2232.5	2484.59
2230.26	2433.11
2228.02	2458.71
2225.78	2434.07
2223.54	2416.15
2221.3	2471.83
2219.05	2473.96
2216.81	2492.8
2214.56	2408.08
2212.32	2463.65
2210.07	2389.04
2207.82	2554.62
2205.57	2513.37
2203.32	2568.78
2201.07	2614.14
2198.82	2473.06
2196.56	2571.65
2194.31	2643.55
2192.05	2642.25
2189.8	2574.52
2187.54	2755.87
2185.28	2681.51
2183.02	2534.24
2180.75	2695.45
2178.49	2714.01
2176.23	2735.86
2173.96	2704.72
2171.7	2686.85
2169.43	2745.06
2167.16	2538.76
2164.89	2679.59
2162.62	2714.6
2160.35	2759.47
2158.08	2754.82
2155.8	2885.36
2153.53	2712.55
2151.25	2786.99
2148.97	2700.01
2146.69	2771.08
2144.41	2881.56
2142.13	3001.79
2139.85	3010.17
2137.57	2874.02
2135.28	2902.15
2133	2913.84
2130.71	2820.57
2128.43	2855.24
2126.14	2912.81
2123.85	3006.35
2121.56	3017.96
2119.26	2983.75
2116.97	3014.98
2114.68	2935.05
2112.38	3083.88
2110.08	3154.19
2107.79	3119.99
2105.49	3193.48
2103.19	2979.98
2100.89	3082.78
2098.58	3048.69
2096.28	3069.97
2093.98	3117.26
2091.67	3184.02
2089.36	3208.45
2087.06	3115.89
2084.75	3143.58
2082.44	3164.74
2080.13	3130.73
2077.81	3210.25
2075.5	3185.97
2073.18	3223.27
2070.87	3270.24
2068.55	3313.93
2066.23	3254.06
2063.91	3300.95
2061.59	3296.08
2059.27	3239.54
2056.95	3357.38
2054.62	3365.39
2052.3	3312.12
2049.97	3297.59
2047.65	3527.92
2045.32	3342.62
2042.99	3369.93
2040.66	3490.5
2038.32	3459.83
2035.99	3593.09
2033.66	3453.18
2031.32	3522.1
2028.98	3504.31
2026.65	3550.68
2024.31	3622.65
2021.97	3342.07
2019.63	3615.84
2017.28	3678.07
2014.94	3653.84
2012.59	3482.53
2010.25	3694.96
2007.9	3549.35
2005.55	3649.77
2003.2	3593.69
2000.85	3818.39
1998.5	3666.64
1996.15	3655.25
1993.79	3717.13
1991.44	3747.12
1989.08	3786.61
1986.72	3689.31
1984.36	3642.97
1982	3854.03
1979.64	3677.45
1977.28	3742.27
1974.92	3768.95
1972.55	3979.52
1970.19	3920.49
1967.82	3956.55
1965.45	3869.08
1963.08	3807.02
1960.71	3953.78
1958.34	3977.1
1955.97	4003.55
1953.59	3906.8
1951.22	3993.24
1948.84	4000.71
1946.46	4102.77
1944.08	4129.09
1941.7	4019.91
1939.32	4134.4
1936.94	4034.77
1934.55	4127.12
1932.17	3967.85
1929.78	4192.12
1927.4	4174.32
1925.01	4140.84
1922.62	4204.65
1920.23	4183.73
1917.83	4275.67
1915.44	4160.74
1913.05	4236.94
1910.65	4219.17
1908.25	4310.9
1905.85	4440.06
1903.46	4284.7
1901.05	4469.97
1898.65	4455.24
1896.25	4506.05
1893.85	4338.48
1891.44	4485.94
1889.03	4331.01
1886.63	4487.66
1884.22	4578.79
1881.81	4520.49
1879.39	4549.31
1876.98	4515.94
1874.57	4544.73
1872.15	4554.87
1869.74	4592.92
1867.32	4475.84
1864.9	4603.8
1862.48	4719.23
1860.06	4661.11
1857.64	4791.87
1855.21	4671.88
1852.79	4780.86
1850.36	4756.81
1847.93	4701.9
1845.51	4869.35
1843.08	4644.69
1840.65	4725.64
1838.21	5006.89
1835.78	4773.26
1833.34	4752.37
1830.91	4762.28
1828.47	4944.49
1826.03	4941.99
1823.59	4788.89
1821.15	4924.72
1818.71	5020.49
1816.27	4901.33
1813.82	4855.91
1811.38	4896.38
1808.93	5037.93
1806.48	4992.5
1804.03	5029.77
1801.58	5272.01
1799.13	5107.26
1796.68	5230
1794.22	5212.08
1791.77	5197.23
1789.31	5334.99
1786.85	5268.23
1784.39	5283.85
1781.93	5189.75
1779.47	5257.18
1777.01	5397.6
1774.54	5437.46
1772.08	5401.25
1769.61	5316.44
1767.14	5407.93
1764.67	5821.2
1762.2	5520.81
1759.73	5442.17
1757.26	5545.53
1754.78	5569.99
1752.31	5548.99
1749.83	5661.21
1747.35	5603.87
1744.87	5440.74
1742.39	5655.61
1739.91	5613.46
1737.42	5737.44
1734.94	5776.77
1732.45	5761.77
1729.97	5795.02
1727.48	5590.16
1724.99	5804.19
1722.5	5725.97
1720.01	5723.06
1717.51	5831.42
1715.02	5690.18
1712.52	5870.55
1710.03	5816.51
1707.53	6008.63
1705.03	5708.59
1702.53	5834.6
1700.02	5789.68
1697.52	5912.52
1695.02	6047.22
1692.51	6014.21
1690	5906.47
1687.49	6031.99
1684.98	6130.49
1682.47	6070.62
1679.96	6040.66
1677.45	6294.12
1674.93	6103.07
1672.41	6189.35
1669.9	6090.88
1667.38	6370.57
1664.86	6364.34
1662.34	6343.24
1659.81	6250.83
1657.29	6312.99
1654.76	6369.14
1652.24	6315.43
1649.71	6374.49
1647.18	6638.06
1644.65	6365.01
1642.12	6432.83
1639.58	6533.14
1637.05	6553.46
1634.51	6488
1631.98	6502.41
1629.44	6587.7
1626.9	6599.09
1624.36	6551.44
1621.81	6489.09
1619.27	6585.99
1616.73	6617.97
1614.18	6626.36
1611.63	6802.51
1609.08	6754.89
1606.53	6654.39
1603.98	6650.97
1601.43	6744.49
1598.87	6746.9
1596.32	6623.12
1593.76	6813.29
1591.2	6592.86
1588.65	6806.28
1586.08	6811.57
1583.52	6746.6
1580.96	6702.17
1578.4	6868.31
1575.83	6949.53
1573.26	6963.48
1570.69	6901.5
1568.12	7014.66
1565.55	6920.64
1562.98	6780.08
1560.41	7094.14
1557.83	7000.22
1555.25	7051.91
1552.68	6975.55
1550.1	7175.47
1547.52	7171.77
1544.93	7173.88
1542.35	7126.63
1539.77	7195.49
1537.18	7455.67
1534.59	7309.8
1532.01	7317.61
1529.42	7284.88
1526.82	7324.52
1524.23	7291.81
1521.64	7415.24
1519.04	7281.39
1516.45	7401.8
1513.85	7418.18
1511.25	7382.61
1508.65	7387.44
1506.05	7334.62
1503.44	7469.09
1500.84	7583.26
1498.23	7334.75
1495.63	7512.14
1493.02	7505.38
1490.41	7492.87
1487.8	7618.2
1485.18	7881.17
1482.57	7610.31
1479.95	7818.53
1477.34	7719.91
1474.72	7922.12
1472.1	7912.29
1469.48	7813.76
1466.86	7946.97
1464.23	7942.84
1461.61	7838.74
1458.98	8048.81
1456.35	7919.06
1453.72	7980.55
1451.09	7868.07
1448.46	8080.53
1445.83	8167.46
1443.19	8009.51
1440.56	7951.29
1437.92	7986.96
1435.28	7940.18
1432.64	8129.2
1430	8388.98
1427.36	8092.36
1424.71	8130.69
1422.07	8132.12
1419.42	8269.54
1416.77	8276.55
1414.12	8357.14
1411.47	8253.79
1408.82	8226.87
1406.17	8185.84
1403.51	8376.44
1400.85	8298.68
1398.2	8443.88
1395.54	8498.68
1392.88	8618.25
1390.21	8622.2
1387.55	8826.04
1384.89	9100
1382.22	9275.24
1379.55	9284.44
1376.88	9136.31
1374.21	9204.54
1371.54	9121.15
1368.87	8936.86
1366.19	9080.77
1363.52	9134.87
1360.84	8998.46
1358.16	9021.74
1355.48	8933.09
1352.8	8984.33
1350.11	8929.32
1347.43	9164.87
1344.74	9185.2
1342.06	9068.77
1339.37	9066.8
1336.68	9262.75
1333.99	9160.38
1331.29	9269.75
1328.6	9150.78
1325.9	9084.78
1323.21	9168.98
1320.51	9066.91
1317.81	9120.47
1315.11	9140.67
1312.4	9158.06
1309.7	8989.65
1306.99	9184.47
1304.29	9179.65
1301.58	9064.08
1298.87	9183.83
1296.16	9270.27
1293.44	9577.74
1290.73	9567.18
1288.01	9415.8
1285.3	9576.43
1282.58	9656.9
1279.86	9406.45
1277.14	9307.81
1274.41	9344.22
1271.69	9174.15
1268.96	9078.53
1266.24	8952.76
1263.51	9044.23
1260.78	9075.17
1258.05	9045.67
1255.31	9128.71
1252.58	9474.91
1249.84	9102.63
1247.11	9117
1244.37	8813.74
1241.63	8967.81
1238.88	9088.89
1236.14	9075.89
1233.4	8898.96
1230.65	8864.22
1227.9	9036.95
1225.15	9103.1
1222.4	8978.32
1219.65	9038.97
1216.9	9145.86
1214.14	8860.63
1211.39	9021.91
1208.63	9115.03
1205.87	9311.32
1203.11	8885.35
1200.35	9076.12
1197.59	8884.08
1194.82	9069.22
1192.05	8842.14
1189.29	9211.32
1186.52	9192.9
1183.75	9182.61
1180.97	9177.74
1178.2	9297.23
1175.43	9124.77
1172.65	9306.27
1169.87	9414.7
1167.09	9595.84
1164.31	9418.18
1161.53	9644.94
1158.74	9540.15
1155.96	9766.6
1153.17	9925.53
1150.38	9828.82
1147.59	10068.2
1144.8	9727.04
1142.01	9746.03
1139.21	9759.63
1136.42	9703.47
1133.62	9944.92
1130.82	10202.2
1128.02	10389.5
1125.22	10282.3
1122.42	10421.3
1119.61	10613.6
1116.8	10431.5
1114	10316.5
1111.19	10260.3
1108.38	10017.4
1105.56	10142.7
1102.75	10225.2
1099.93	10584.6
1097.12	10887.8
1094.3	10557.4
1091.48	10384.2
1088.66	10251.1
1085.84	10073
1083.01	10075.5
1080.19	9913.6
1077.36	10035.6
1074.53	10040.8
1071.7	10069.9
1068.87	9993.03
1066.03	10088.2
1063.2	10098.7
1060.36	10066.9
1057.52	10169.8
1054.68	10114.2
1051.84	10079.7
1049	10135
1046.16	9884.39
1043.31	9997.67
1040.46	9842.19
1037.61	10094.9
1034.76	9923.72
1031.91	10057.8
1029.06	9960.38
1026.2	9913.01
1023.35	9889.31
1020.49	9939.1
1017.63	10083.2
1014.77	9928.43
1011.91	9763.3
1009.04	9883.73
1006.18	9881.03
1003.31	10061.4
1000.44	10173.6
997.572	10079.3
994.7	10167.9
991.826	10024.1
988.952	10269.1
986.075	10057.7
983.197	10112.2
980.318	10226.5
977.437	9991.97
974.554	10225.9
971.67	10191.8
968.784	10038.2
965.897	10248.3
963.008	10294.7
960.118	10092
957.226	10166.9
954.332	10148.5
951.437	10132.7
948.541	9907.15
945.642	10176.1
942.743	10276.6
939.841	10227.1
936.938	10451.5
934.034	10303.8
931.128	10220.9
928.22	10336.5
925.311	10315.5
922.4	10356.3
919.488	10412.5
916.574	10450.6
913.659	10547.8
910.742	10590.9
907.823	10441.3
904.903	10397.2
901.981	10514.7
899.058	10537.2
896.133	10375.1
893.206	10664.2
890.278	10545.7
887.348	10570.7
884.417	10680.1
881.484	10909.5
878.549	10768.2
875.613	10897.7
872.676	10802.4
869.736	10704.7
866.795	10808.5
863.853	10830.7
860.909	11074.4
857.963	11022.6
855.016	11606.9
852.067	11158.1
849.117	11220.7
846.164	11227.2
843.211	11213.5
840.255	11065.3
837.298	11001
834.34	10822.6
831.38	11523.5
828.418	11038.7
825.455	10931.5
822.49	10816.8
819.523	11137
816.555	10893.4
813.585	10854.7
810.614	10868.9
807.64	11090
804.666	11192.3
801.689	10851.1
798.711	10973.6
795.732	11184.1
792.751	10991.8
789.768	11159.3
786.783	11168.3
783.797	11297.8
780.809	11136
777.82	11260.3
774.829	11239.1
771.836	11172.9
768.842	11271.9
765.846	11395.9
762.849	11462.2
759.849	11345.9
756.849	11357.2
753.846	11366
750.842	11294.9
747.836	11508.2
744.829	11489.4
741.82	11552.9
738.809	11240.2
735.797	11420.8
732.783	11409.5
729.767	11346.1
726.75	11536.2
723.731	11557.2
720.71	11516.1
717.688	11470.1
714.664	11885.3
711.638	11747.4
708.611	11805.4
705.582	11895.4
702.551	11928.5
699.519	11837.8
696.485	11937.6
693.449	12071.8
690.412	11739.3
687.373	11876
684.332	11938.5
681.29	11747.1
678.246	11780
675.2	11928.6
672.153	11968.8
669.104	11731
666.053	11958.1
663.001	11772.1
659.946	11984.2
656.891	12043.8
653.833	11958.7
650.774	12123.7
647.713	12178.2
644.651	11838.5
641.586	11942.1
638.521	12241.2
635.453	12060.9
632.384	12061.6
629.313	12247.8
626.24	12223.9
623.166	12531.8
620.089	12381.1
617.012	12298.7
613.932	12525.6
610.851	12436
607.768	12519.1
604.683	12638.6
601.597	12393.5
598.509	12471.6
595.419	12547.2
592.328	12472.3
589.235	12327.2
586.14	12560.3
583.043	12524.2
579.945	12449.5
576.845	12638.5
573.743	12343.8
570.639	12428.8
567.534	12390.5
564.427	12707
561.318	12736.2
558.208	12553.1
555.096	12772.6
551.982	12818.5
548.866	12931.7
545.749	12840.3
542.63	12746.6
539.509	12914.9
536.387	12840.5
533.262	13006.2
530.136	12994.1
527.009	12986.9
523.879	13343.9
520.748	13604.6
517.615	13556.4
514.48	13398.1
511.344	13020.1
508.205	13000.9
505.065	13151.2
501.924	12912.4
498.78	13050.7
495.635	12847.9
492.488	12909.8
489.339	13050.3
486.189	13038.2
483.036	16356.5
479.882	13156.8
476.726	13208.9
473.569	12899.9
470.409	13099.1
467.248	13167.7
464.085	13148.5
460.921	13631.6
457.754	13732.9
454.586	13500.4
451.416	13542.5
448.244	13568
445.071	13685.7
441.896	13869.3
438.718	14217.9
435.54	14092
432.359	13864.8
429.176	13515.4
425.992	13597.3
422.806	13688.5
419.618	13457.4
416.429	13463.9
413.237	13496.3
410.044	13439.4
406.849	13194.8
403.653	13736.3
400.454	14298.3
397.254	13503
394.051	13823.2
390.847	13735.9
387.642	13810
384.434	14515.3
381.225	14803.8
378.014	14643.7
374.801	13951.6
371.586	13852.8
368.369	13847.3
365.151	13748.7
361.93	13999.4
358.708	13796
355.485	13823.1
352.259	13650.3
349.031	13858.6
345.802	14124.8
342.571	13975.3
339.338	13793.4
336.103	14054.6
332.866	13868.2
329.628	14108.1
326.388	13808.6
323.145	13826.2
319.901	13700.5
316.656	13584.2
313.408	13976
310.158	13799.6
306.907	13748
303.654	13666.4
300.399	13725.5
297.142	13807.5
293.883	13523.6
290.623	13727.5
287.361	13666.8
284.096	13672.9
280.83	13607.7
277.562	13792.8
274.292	13819.3
271.021	13884.8
267.747	13366.1
264.472	13963
261.195	13682.7
257.916	13727.6
254.635	13790.6
251.352	15623.8
248.067	15030.5
244.781	13849.3
241.492	13832.3
238.202	13899.6
234.91	13809.7
231.616	13854.2
228.32	13869.1
225.022	14027.2
221.722	13991.9
218.421	13911.3
215.117	13864.8
211.812	14047.4
208.505	13880.7
205.196	13927.2
201.885	13930.6
198.572	13877.3
195.257	13957.7
191.94	13979.1
188.622	13808.4
185.301	14067
181.979	13770.1
178.655	13895.3
175.329	13995.6
172.001	14131.8
168.671	14101.2
165.339	13922.1
162.005	13979.4
158.67	14072.5
155.332	14080.2
151.993	14285.5
148.651	14059.6
145.308	14358.8
141.963	14568
138.616	14281.9
135.266	14340.9
131.915	14377.4
128.563	14731.5
125.208	14461.5
121.851	14917.9
118.492	14858
115.132	14987.8
111.769	14370.4
108.405	13214.3
105.038	11674.2
101.67	10107
100.547	9728.88