File: Spicy-Raman/model_train_and_validate/Raman_Data/cellulose/20180911 NBay_Control 4a_1.txt
3201.2	210.561
3199.42	290.486
3197.64	252.482
3195.85	231.337
3194.07	248.049
3192.28	310.972
3190.5	235.223
3188.71	251.911
3186.93	243.403
3185.14	285.24
3183.35	184.483
3181.56	284.981
3179.77	217.828
3177.98	238.664
3176.19	209.26
3174.4	184.065
3172.6	250.884
3170.81	238.231
3169.01	229.768
3167.22	208.785
3165.42	283.819
3163.62	250.315
3161.82	195.991
3160.03	250.087
3158.23	329.132
3156.42	270.681
3154.62	253.909
3152.82	245.472
3151.02	261.995
3149.21	349.168
3147.41	282.531
3145.6	286.556
3143.8	290.576
3141.99	219.908
3140.18	273.723
3138.37	236.289
3136.56	277.617
3134.75	331.332
3132.94	318.762
3131.13	273.1
3129.32	285.384
3127.5	268.717
3125.69	305.785
3123.87	318.036
3122.05	255.965
3120.24	284.734
3118.42	206.235
3116.6	222.632
3114.78	309.07
3112.96	259.501
3111.14	333.491
3109.32	263.379
3107.49	304.393
3105.67	279.585
3103.85	312.335
3102.02	287.545
3100.19	295.626
3098.37	250.347
3096.54	311.765
3094.71	364.926
3092.88	327.874
3091.05	253.986
3089.22	331.669
3087.39	323.332
3085.55	290.456
3083.72	314.858
3081.88	335.15
3080.05	232.864
3078.21	326.677
3076.37	297.956
3074.54	285.58
3072.7	326.228
3070.86	411.675
3069.02	305.559
3067.18	378.72
3065.33	321.561
3063.49	362.099
3061.65	378.2
3059.8	312.99
3057.96	353.476
3056.11	345.192
3054.26	418.1
3052.41	320.531
3050.56	385.272
3048.71	364.828
3046.86	307.935
3045.01	429.292
3043.16	340.038
3041.31	368.205
3039.45	388.258
3037.6	424.462
3035.74	436.389
3033.89	319.064
3032.03	403.693
3030.17	387.368
3028.31	358.957
3026.45	366.855
3024.59	346.539
3022.73	471.238
3020.86	330.118
3019	454.709
3017.14	382.102
3015.27	402.028
3013.4	413.898
3011.54	341.409
3009.67	417.532
3007.8	477.534
3005.93	369.016
3004.06	457.048
3002.19	424.779
3000.32	500.688
2998.44	364.333
2996.57	404.184
2994.7	467.997
2992.82	503.765
2990.94	443.589
2989.07	479.335
2987.19	495.084
2985.31	478.893
2983.43	538.506
2981.55	438.581
2979.67	430.408
2977.78	569.63
2975.9	561.404
2974.02	501.449
2972.13	560.886
2970.25	568.58
2968.36	548.446
2966.47	488.607
2964.58	512.205
2962.69	579.437
2960.8	587.103
2958.91	582.867
2957.02	606.378
2955.13	542.715
2953.23	593.939
2951.34	609.496
2949.44	621.082
2947.55	569.391
2945.65	695.601
2943.75	564.915
2941.85	643.626
2939.95	655.169
2938.05	639.086
2936.15	697.938
2934.25	701.556
2932.34	677.595
2930.44	748.159
2928.53	728.134
2926.63	727.797
2924.72	770.714
2922.81	793.94
2920.9	715.001
2918.99	828.545
2917.08	918.435
2915.17	843.47
2913.26	843.08
2911.35	940.676
2909.43	967.664
2907.52	900.646
2905.6	876.744
2903.68	919.372
2901.77	864.2
2899.85	945.879
2897.93	953.254
2896.01	952.812
2894.09	932.854
2892.17	1022.15
2890.24	978.782
2888.32	954.942
2886.39	794.766
2884.47	868.385
2882.54	860.197
2880.61	902.593
2878.69	925.505
2876.76	917.302
2874.83	858.599
2872.89	803.835
2870.96	919.904
2869.03	923.356
2867.1	884.149
2865.16	1058.16
2863.23	1646.55
2861.29	921.64
2859.35	839.927
2857.41	793.111
2855.47	812.077
2853.53	738.259
2851.59	807.457
2849.65	807.081
2847.71	756.527
2845.77	729.169
2843.82	782.816
2841.88	693.799
2839.93	855.287
2837.98	781.722
2836.03	908.377
2834.08	765.605
2832.13	857.539
2830.18	734.141
2828.23	837.53
2826.28	756.497
2824.32	802.204
2822.37	763.464
2820.41	847.472
2818.46	785.749
2816.5	770.058
2814.54	857.773
2812.58	750.201
2810.62	791.934
2808.66	795.388
2806.7	791.194
2804.74	867.232
2802.77	748.45
2800.81	809.169
2798.84	930.873
2796.88	838.919
2794.91	914.756
2792.94	872.422
2790.97	833.934
2789	863.993
2787.03	806.523
2785.06	817.554
2783.09	870.382
2781.11	835.783
2779.14	839.189
2777.16	869.16
2775.18	823.229
2773.21	864.554
2771.23	879.309
2769.25	791.765
2767.27	961.79
2765.29	965.124
2763.31	877.662
2761.32	865.906
2759.34	914.633
2757.35	899.094
2755.37	1011.95
2753.38	909.573
2751.39	897.828
2749.4	976.59
2747.41	949.75
2745.42	956.838
2743.43	930.031
2741.44	1031.21
2739.45	974.299
2737.45	988.881
2735.46	1041.03
2733.46	965.413
2731.46	1025.03
2729.46	1035.81
2727.47	1024.07
2725.47	1031.09
2723.46	985.632
2721.46	1063.83
2719.46	965.984
2717.46	1051.6
2715.45	980.037
2713.45	1005.75
2711.44	1016.49
2709.43	1060.83
2707.42	1093.93
2705.41	1127
2703.4	1111.55
2701.39	1096.12
2699.38	1069.51
2697.37	1076.46
2695.35	1075.95
2693.34	1153.59
2691.32	1186.52
2689.3	1245.45
2687.29	1181.69
2685.27	1136.56
2683.25	1154.59
2681.23	1224.54
2679.2	1272.18
2677.18	1256.75
2675.16	1089.41
2673.13	1211.12
2671.11	1121.7
2669.08	1147.07
2667.05	1098.45
2665.03	1205.14
2663	1219.35
2660.97	1096.9
2658.93	1221.89
2656.9	1228.69
2654.87	1220.73
2652.83	1260.7
2650.8	1212.21
2648.76	1196.9
2646.73	1196.34
2644.69	1203.13
2642.65	1231.98
2640.61	1238.75
2638.57	1252.86
2636.53	1347.75
2634.48	1270.03
2632.44	1342.8
2630.39	1283.49
2628.35	1304.88
2626.3	1256.63
2624.25	1413.5
2622.2	1416.49
2620.15	1338.99
2618.1	1312.75
2616.05	1301.17
2614	1289.59
2611.95	1438.69
2609.89	1328.51
2607.84	1451.92
2605.78	1352.78
2603.72	1399.51
2601.66	1373.35
2599.6	1361.77
2597.54	1419.36
2595.48	1345.93
2593.42	1476.18
2591.36	1417.33
2589.29	1423.93
2587.23	1521.28
2585.16	1589.51
2583.09	1476.3
2581.02	1410.34
2578.95	1485.77
2576.88	1347.42
2574.81	1491.6
2572.74	1469.18
2570.67	1602.3
2568.59	1413.55
2566.52	1485.15
2564.44	1516.94
2562.36	1559.54
2560.29	1483.02
2558.21	1604.94
2556.13	1636.62
2554.05	1650.25
2551.96	1566.63
2549.88	1544.29
2547.8	1597.52
2545.71	1654.3
2543.63	1574.43
2541.54	1663.5
2539.45	1712.98
2537.36	1661.91
2535.27	1722.11
2533.18	1610.12
2531.09	1677.46
2528.99	1716.06
2526.9	1693.76
2524.81	1739.48
2522.71	1627.75
2520.61	1873.69
2518.51	1751.28
2516.41	1843.32
2514.31	1642.49
2512.21	1759.48
2510.11	1680.16
2508.01	1650.83
2505.9	1810.41
2503.8	1820.23
2501.69	1833.6
2499.59	1814.93
2497.48	1842.51
2495.37	1827.41
2493.26	1794.55
2491.15	1811.45
2489.03	2002.29
2486.92	1898.43
2484.81	1911.71
2482.69	1935.61
2480.58	2016.17
2478.46	1873.54
2476.34	1879.72
2474.22	1846.98
2472.1	1991.09
2469.98	1845.2
2467.86	1918.52
2465.73	1963.5
2463.61	2011.98
2461.48	1986.32
2459.36	1897.2
2457.23	2023.18
2455.1	1983.45
2452.97	1954.33
2450.84	2080.1
2448.71	2008.74
2446.58	1828.44
2444.44	2066.56
2442.31	2156.9
2440.17	2103.19
2438.04	2158.33
2435.9	2171.32
2433.76	2250.92
2431.62	2137.69
2429.48	2070.11
2427.34	2191.65
2425.19	2208.09
2423.05	2137.08
2420.9	2171.01
2418.76	2135.02
2416.61	2214.32
2414.46	2199.29
2412.31	2281.97
2410.16	2214.61
2408.01	2262.34
2405.86	2247.31
2403.71	2270.61
2401.55	2307.8
2399.4	2303.21
2397.24	2239.5
2395.08	2300.98
2392.93	2213.02
2390.77	2371.68
2388.61	2408.72
2386.44	2282.67
2384.28	2402.92
2382.12	2460.68
2379.95	2355.57
2377.79	2596.8
2375.62	2318.68
2373.45	2473.22
2371.28	2648.35
2369.11	2560.68
2366.94	2521.44
2364.77	2413.2
2362.6	2536.26
2360.42	2500.54
2358.25	2554.48
2356.07	2611.82
2353.89	2448.69
2351.72	2612.74
2349.54	2632.12
2347.36	2675.55
2345.17	2667.38
2342.99	2532.09
2340.81	2589.24
2338.62	2670.36
2336.44	2651.91
2334.25	2616.34
2332.06	2669.91
2329.87	2767.96
2327.68	2588.56
2325.49	2775.54
2323.3	2743.4
2321.11	2748.91
2318.91	2747.57
2316.72	2660.85
2314.52	2785.87
2312.32	2746.98
2310.12	2697.9
2307.93	2788.63
2305.72	2889.5
2303.52	2840.41
2301.32	2937.75
2299.12	2895.49
2296.91	2778.46
2294.7	3008.25
2292.5	2891.27
2290.29	2947.59
2288.08	2925.79
2285.87	3005.79
2283.66	2872.08
2281.45	2806.28
2279.23	3055.6
2277.02	3047.34
2274.8	2968.01
2272.58	2993.63
2270.37	2911.02
2268.15	3156.3
2265.93	3023.03
2263.71	3105.95
2261.48	3033.58
2259.26	3096.18
2257.04	3155.35
2254.81	3116.74
2252.58	3209.52
2250.36	3113.7
2248.13	3098.72
2245.9	3188
2243.67	3169.64
2241.43	3215.13
2239.2	3210.2
2236.97	3168.35
2234.73	3223.83
2232.5	3135.08
2230.26	3133.54
2228.02	3312.9
2225.78	3254.36
2223.54	3152.37
2221.3	3287.97
2219.05	3269.64
2216.81	3217.92
2214.56	3249.74
2212.32	3428.42
2210.07	3259.91
2207.82	3411.72
2205.57	3490.05
2203.32	3441.69
2201.07	3393.39
2198.82	3538.18
2196.56	3559.73
2194.31	3501.45
2192.05	3486.44
2189.8	3554.49
2187.54	3668.96
2185.28	3584.19
2183.02	3632.19
2180.75	3607.2
2178.49	3539.15
2176.23	3626.84
2173.96	3625.06
2171.7	3656.37
2169.43	3611.57
2167.16	3725.5
2164.89	3677.41
2162.62	3873.75
2160.35	3815.73
2158.08	3741.27
2155.8	3788.89
2153.53	3793.62
2151.25	3870.82
2148.97	3786.6
2146.69	3837.39
2144.41	3819.05
2142.13	3850.05
2139.85	3835.01
2137.57	3839.69
2135.28	3850.93
2133	3914.66
2130.71	3932.41
2128.43	3959.97
2126.14	3849.89
2123.85	3933.14
2121.56	3944.29
2119.26	4105.93
2116.97	4152.96
2114.68	4010.36
2112.38	3916.91
2110.08	4091.3
2107.79	4053.38
2105.49	4031.81
2103.19	4212.4
2100.89	4096.26
2098.58	4172.41
2096.28	4033.61
2093.98	4200.82
2091.67	4192.24
2089.36	4141.41
2087.06	4145.86
2084.75	4263.96
2082.44	4235.89
2080.13	4172.15
2077.81	4251.15
2075.5	4352.76
2073.18	4246.94
2070.87	4400.26
2068.55	4430.44
2066.23	4324.74
2063.91	4364.62
2061.59	4349.53
2059.27	4431.35
2056.95	4264.52
2054.62	4330.16
2052.3	4547.32
2049.97	4564.4
2047.65	4594.36
2045.32	4479.37
2042.99	4573.7
2040.66	4445.97
2038.32	4520.93
2035.99	4563.68
2033.66	4805.55
2031.32	4671.52
2028.98	4791.14
2026.65	4695.75
2024.31	4776.77
2021.97	4553.29
2019.63	4650.31
2017.28	4667.21
2014.94	4952.84
2012.59	4694.55
2010.25	4749.74
2007.9	4884.75
2005.55	4844
2003.2	4927.76
2000.85	4826.42
1998.5	5044.02
1996.15	4971.39
1993.79	4730.03
1991.44	5093.79
1989.08	4998.97
1986.72	5079.17
1984.36	5137.03
1982	5150.36
1979.64	5265.29
1977.28	4957.95
1974.92	5076.03
1972.55	5193.99
1970.19	5147.03
1967.82	5353.53
1965.45	5119.73
1963.08	5243.76
1960.71	5411.94
1958.34	5371.3
1955.97	5330.7
1953.59	5318.56
1951.22	5410.6
1948.84	5625.6
1946.46	5446.19
1944.08	5411.94
1941.7	5513.2
1939.32	5504.14
1936.94	5290.52
1934.55	5542.67
1932.17	5398.41
1929.78	5521.41
1927.4	5512.36
1925.01	5660.29
1922.62	5400.16
1920.23	5698.53
1917.83	5542.08
1915.44	5551.83
1913.05	5702.49
1910.65	5746.58
1908.25	5784.37
1905.85	5784.59
1903.46	5619.18
1901.05	5803.78
1898.65	5897.65
1896.25	5829.16
1893.85	5885.49
1891.44	6019.7
1889.03	6007.33
1886.63	5929.57
1884.22	6141.36
1881.81	6107.17
1879.39	5830.45
1876.98	6029.54
1874.57	6085.53
1872.15	5964.49
1869.74	6035.97
1867.32	6265.56
1864.9	6132.2
1862.48	6175.59
1860.06	6271.59
1857.64	6194.14
1855.21	6444.72
1852.79	6398.18
1850.36	6432.05
1847.93	6252.72
1845.51	6339.11
1843.08	6573.55
1840.65	6298.79
1838.21	6557.68
1835.78	6465
1833.34	6517.18
1830.91	6449.25
1828.47	6470.61
1826.03	6541.15
1823.59	6626.98
1821.15	6359.43
1818.71	6755.4
1816.27	6620.02
1813.82	6598.27
1811.38	6668.51
1808.93	6677.4
1806.48	6609.7
1804.03	6655.34
1801.58	6746.83
1799.13	6780.12
1796.68	6978.43
1794.22	6880.19
1791.77	6864.49
1789.31	7102.13
1786.85	7019.22
1784.39	6927.24
1781.93	7027.35
1779.47	6905
1777.01	7090.25
1774.54	7056.23
1772.08	7061.77
1769.61	7237.54
1767.14	7145.76
1764.67	7442.76
1762.2	7314.55
1759.73	7310.83
1757.26	7240.42
1754.78	7309.48
1752.31	7269.42
1749.83	7238.48
1747.35	7461.74
1744.87	7261.37
1742.39	7472.3
1739.91	7695.09
1737.42	7383.17
1734.94	7400.55
1732.45	7547.62
1729.97	7537.75
1727.48	7316.94
1724.99	7563.21
1722.5	7559.36
1720.01	7525.43
1717.51	7563.7
1715.02	7604.94
1712.52	7796.35
1710.03	7786.37
1707.53	7665.35
1705.03	7613.45
1702.53	7987.35
1700.02	7740.54
1697.52	7877.37
1695.02	8082.91
1692.51	7788.55
1690	8029.81
1687.49	7909.14
1684.98	8084.35
1682.47	8086.2
1679.96	8010.44
1677.45	8116.72
1674.93	8330.23
1672.41	8045.86
1669.9	8321.72
1667.38	8073.36
1664.86	8152.54
1662.34	8353.57
1659.81	8298.77
1657.29	8529.22
1654.76	8432.81
1652.24	8526.43
1649.71	8264
1647.18	8467.3
1644.65	8545.94
1642.12	8423.09
1639.58	8430.62
1637.05	8417.43
1634.51	8694.04
1631.98	8544.76
1629.44	8445.85
1626.9	8668.87
1624.36	8626.06
1621.81	8539.05
1619.27	8720.4
1616.73	8760.12
1614.18	8729.12
1611.63	8871.82
1609.08	8820.19
1606.53	8865.65
1603.98	8819.95
1601.43	8821.3
1598.87	8863.74
1596.32	8777.02
1593.76	8916.23
1591.2	8932.16
1588.65	9059.42
1586.08	9092.83
1583.52	9012.05
1580.96	8928.43
1578.4	9029.1
1575.83	9264.09
1573.26	9189.22
1570.69	9152.37
1568.12	9203.1
1565.55	9317.93
1562.98	9179.05
1560.41	9191.8
1557.83	9588.9
1555.25	9266.73
1552.68	9357.94
1550.1	9213.56
1547.52	9365.73
1544.93	9215.68
1542.35	9414.12
1539.77	9487.6
1537.18	9540.7
1534.59	9466.22
1532.01	9556.93
1529.42	9803.89
1526.82	9694.64
1524.23	9611.54
1521.64	9592.12
1519.04	9720.07
1516.45	9807.46
1513.85	9681.16
1511.25	9641.53
1508.65	9613.48
1506.05	9536.45
1503.44	9857.01
1500.84	9946.92
1498.23	9838.18
1495.63	9847.46
1493.02	9822.24
1490.41	10001
1487.8	10018.8
1485.18	10231.7
1482.57	9945.32
1479.95	10229.7
1477.34	10284.6
1474.72	10136.1
1472.1	10265.4
1469.48	10228.6
1466.86	10377.7
1464.23	10329.4
1461.61	10272.6
1458.98	10490
1456.35	10581.6
1453.72	10670.2
1451.09	10579.1
1448.46	10377
1445.83	10388.7
1443.19	10340.6
1440.56	10497.4
1437.92	10702.4
1435.28	10355.8
1432.64	10546.4
1430	10566.4
1427.36	10490
1424.71	10702.9
1422.07	10688.8
1419.42	10938.2
1416.77	10813.6
1414.12	10960.8
1411.47	10938.1
1408.82	10802.4
1406.17	11079.3
1403.51	10762.9
1400.85	10974.6
1398.2	11115.6
1395.54	11281.8
1392.88	11261.8
1390.21	11264.4
1387.55	11624.5
1384.89	11770.3
1382.22	11938.6
1379.55	12067.2
1376.88	12136.8
1374.21	12015.3
1371.54	11753.7
1368.87	11649.3
1366.19	11444.2
1363.52	11567.1
1360.84	11664.7
1358.16	11529.8
1355.48	11582.5
1352.8	11705.1
1350.11	11886.2
1347.43	11880
1344.74	11784.4
1342.06	12124.2
1339.37	12090
1336.68	12008.4
1333.99	11798.7
1331.29	12232.5
1328.6	11911.6
1325.9	12011
1323.21	12110.4
1320.51	11942.9
1317.81	12017.1
1315.11	11924.8
1312.4	11569
1309.7	11804.1
1306.99	11825.6
1304.29	11744.6
1301.58	11638.8
1298.87	11724
1296.16	11717.8
1293.44	11930
1290.73	12133.7
1288.01	11873.3
1285.3	12145.8
1282.58	11913.2
1279.86	11774.6
1277.14	12005.4
1274.41	12037.6
1271.69	12036.8
1268.96	11832.3
1266.24	11886.6
1263.51	11819.9
1260.78	11739.5
1258.05	11854.1
1255.31	11790.2
1252.58	12039
1249.84	12035.4
1247.11	11782.5
1244.37	12091.2
1241.63	12024.6
1238.88	12141.3
1236.14	11809.6
1233.4	11991.9
1230.65	11813.5
1227.9	11990.1
1225.15	11983.8
1222.4	12105.6
1219.65	11935.7
1216.9	12109.1
1214.14	12184.4
1211.39	11788.9
1208.63	11752.7
1205.87	11936.8
1203.11	12060.8
1200.35	12119.6
1197.59	12153.9
1194.82	12071.5
1192.05	12225
1189.29	11955.8
1186.52	12041.5
1183.75	11907.9
1180.97	12218.1
1178.2	12327.8
1175.43	12264.5
1172.65	12468.7
1169.87	12440.5
1167.09	12385.3
1164.31	12718.5
1161.53	12806
1158.74	12882.7
1155.96	12986.2
1153.17	12968.6
1150.38	13160.7
1147.59	12976.3
1144.8	13039.2
1142.01	12860.5
1139.21	13060.2
1136.42	13050.6
1133.62	13073.1
1130.82	13519
1128.02	13450.2
1125.22	13809.7
1122.42	13690
1119.61	14032.9
1116.8	14001.4
1114	13590.6
1111.19	13255.1
1108.38	13392.1
1105.56	13443.6
1102.75	13473.7
1099.93	14079.1
1097.12	14194.1
1094.3	14519.1
1091.48	13881.1
1088.66	13461.7
1085.84	13406.7
1083.01	13261.5
1080.19	13403
1077.36	13149.2
1074.53	13272
1071.7	13392.1
1068.87	13326.7
1066.03	13256
1063.2	13233.1
1060.36	13247.1
1057.52	13319.3
1054.68	13415.2
1051.84	13107.1
1049	13300.6
1046.16	16235.8
1043.31	14751.4
1040.46	13410.9
1037.61	13137.8
1034.76	13493.8
1031.91	13449.8
1029.06	13129.8
1026.2	13201.6
1023.35	13184
1020.49	13295
1017.63	13046.6
1014.77	13215.2
1011.91	13043.1
1009.04	13274.3
1006.18	13288.1
1003.31	13461.4
1000.44	13292.1
997.572	13237.9
994.7	13322.2
991.826	13356.8
988.952	13605.2
986.075	13076.5
983.197	13455.1
980.318	13388
977.437	13362.5
974.554	13451.6
971.67	13725.1
968.784	13530.6
965.897	13687
963.008	13778.2
960.118	13648.9
957.226	13548.1
954.332	13556.4
951.437	13463.6
948.541	13653.1
945.642	13821.6
942.743	13630.6
939.841	13716.3
936.938	13698.5
934.034	13709.2
931.128	13885
928.22	13753.7
925.311	13813.3
922.4	13859.9
919.488	13806
916.574	13801.2
913.659	13744.8
910.742	13907
907.823	14130.7
904.903	14082
901.981	13925.5
899.058	13907.7
896.133	14189.9
893.206	14179.6
890.278	14028.5
887.348	14207.8
884.417	14315.2
881.484	14210.2
878.549	14207.6
875.613	14258.7
872.676	14263.7
869.736	14182
866.795	14355.3
863.853	14536.1
860.909	14418.7
857.963	14622.1
855.016	14868.6
852.067	14603.7
849.117	14570.3
846.164	14491.3
843.211	14579.9
840.255	14582.1
837.298	14536.1
834.34	14654.9
831.38	14791.3
828.418	14436.4
825.455	14552.5
822.49	14567.4
819.523	14584.7
816.555	14528.8
813.585	14538.5
810.614	14669.4
807.64	14631.1
804.666	14643.3
801.689	14685.7
798.711	14705.4
795.732	14858.4
792.751	15144.6
789.768	14857.3
786.783	14728.6
783.797	14921.4
780.809	14993.6
777.82	14990.4
774.829	15280.5
771.836	15199.5
768.842	15133.6
765.846	15268
762.849	15132
759.849	15173.8
756.849	15128
753.846	15469.3
750.842	15069
747.836	15290.2
744.829	15184.6
741.82	15076.6
738.809	15319.9
735.797	15326.4
732.783	15300.6
729.767	15170.4
726.75	15363.4
723.731	15402.1
720.71	15267.1
717.688	15546.5
714.664	15394.1
711.638	15611.2
708.611	15357.4
705.582	15888.6
702.551	15741.3
699.519	15628.8
696.485	15684.5
693.449	15782.1
690.412	15714.1
687.373	16004.1
684.332	15911.4
681.29	15744.9
678.246	15935.8
675.2	15912.2
672.153	15839.5
669.104	15897.1
666.053	15900.7
663.001	15724.8
659.946	15890.5
656.891	15835.1
653.833	15823.9
650.774	16133.8
647.713	15975.5
644.651	16248.3
641.586	16068
638.521	15988.2
635.453	16231.1
632.384	16249
629.313	16120.4
626.24	16616.7
623.166	16427
620.089	16513
617.012	16788.9
613.932	16679.8
610.851	16505
607.768	16405.9
604.683	16666.7
601.597	16577.3
598.509	16480.6
595.419	16427.8
592.328	16598.2
589.235	16613.3
586.14	16422.3
583.043	16858.8
579.945	16667.9
576.845	16448.2
573.743	16741.3
570.639	16671.6
567.534	16807.2
564.427	16797.9
561.318	16916.4
558.208	17015.5
555.096	16974.7
551.982	16707.6
548.866	16727.2
545.749	16980.1
542.63	17153.4
539.509	17045.3
536.387	17093.5
533.262	17103.2
530.136	17412.7
527.009	17319.1
523.879	17496.3
520.748	17805.1
517.615	18120.6
514.48	17749.3
511.344	17230.2
508.205	17402.2
505.065	17292.2
501.924	17351.8
498.78	17141.7
495.635	17165.5
492.488	17308.4
489.339	17074.9
486.189	17077.3
483.036	17205.7
479.882	17129.5
476.726	17167.5
473.569	17286.1
470.409	17554.1
467.248	17423.3
464.085	17958.9
460.921	18216.6
457.754	18353.2
454.586	18357.1
451.416	18044.1
448.244	17925.2
445.071	18316.9
441.896	18325.5
438.718	18815.6
435.54	19189.5
432.359	18598.8
429.176	18039.4
425.992	18290.7
422.806	18176.8
419.618	17830.3
416.429	17825
413.237	17779.7
410.044	17776.8
406.849	17931.1
403.653	18484
400.454	18799.4
397.254	18032.1
394.051	18256.1
390.847	18419
387.642	18495.2
384.434	19536.8
381.225	19682.3
378.014	19781
374.801	18915.7
371.586	18326.6
368.369	18463.1
365.151	18732.3
361.93	18158.2
358.708	18269
355.485	18556.4
352.259	18206.6
349.031	18435.6
345.802	18648.1
342.571	18503
339.338	18480.9
336.103	18273.5
332.866	18450.8
329.628	18331.6
326.388	18455.4
323.145	18389.5
319.901	18342.1
316.656	18292.5
313.408	18115.9
310.158	18174.9
306.907	18153
303.654	18181.9
300.399	18109.5
297.142	17859.8
293.883	17847.3
290.623	17752.1
287.361	17859.3
284.096	17959.4
280.83	17949.3
277.562	18051.5
274.292	17800.5
271.021	17985.2
267.747	18064.3
264.472	17887
261.195	18023.2
257.916	18193.7
254.635	17934.2
251.352	18063.4
248.067	18091.9
244.781	18168.3
241.492	18169.4
238.202	17887.9
234.91	18192
231.616	18133.9
228.32	18016.6
225.022	18317.9
221.722	17946.1
218.421	18276.6
215.117	18048.2
211.812	18026.6
208.505	18141.1
205.196	18053.7
201.885	18201.9
198.572	17867.8
195.257	18034.1
191.94	18037.4
188.622	18250.8
185.301	17931
181.979	17862.1
178.655	18275.9
175.329	18161.8
172.001	18133.4
168.671	18249.1
165.339	18121.7
162.005	17949.4
158.67	17977.3
155.332	17854.7
151.993	18078
148.651	17825.3
145.308	18023.7
141.963	18206.1
138.616	18260.7
135.266	18205.4
131.915	18275.6
128.563	18054.9
125.208	18002
121.851	18228.5
118.492	18490.4
115.132	18419.6
111.769	17693.2
108.405	16450.5
105.038	14839.5
101.67	13366.1
100.547	12829.4