File: Spicy-Raman/model_train_and_validate/Raman_Data/cellulose/20180914 NBay_Control 7c_1.txt
3201.25	160.028
3199.47	206.29
3197.68	130.451
3195.9	172.453
3194.12	206.009
3192.33	155.488
3190.55	121.813
3188.76	125.957
3186.97	163.67
3185.19	130.037
3183.4	205.45
3181.61	180.211
3179.82	129.86
3178.03	159.112
3176.24	159.039
3174.44	138.05
3172.65	129.625
3170.86	83.5909
3169.06	116.974
3167.26	133.624
3165.47	141.911
3163.67	175.222
3161.87	112.592
3160.07	154.222
3158.27	104.157
3156.47	158.246
3154.67	158.175
3152.87	124.818
3151.07	153.872
3149.26	203.684
3147.46	116.338
3145.65	182.733
3143.84	182.65
3142.04	128.627
3140.23	107.831
3138.42	111.928
3136.61	182.318
3134.8	182.235
3132.99	178.012
3131.18	177.931
3129.36	86.8569
3127.55	161.232
3125.73	119.836
3123.92	161.085
3122.1	127.984
3120.29	82.5326
3118.47	107.243
3116.65	144.3
3114.83	82.4197
3113.01	148.288
3111.19	209.979
3109.37	119.345
3107.54	234.468
3105.72	209.691
3103.89	49.3166
3102.07	110.912
3100.24	221.722
3098.41	110.81
3096.59	114.862
3094.76	123.01
3092.93	229.514
3091.1	122.898
3089.27	131.031
3087.43	155.528
3085.6	192.276
3083.77	122.673
3081.93	167.577
3080.1	142.988
3078.26	122.505
3076.42	89.796
3074.59	175.43
3072.75	195.739
3070.91	130.433
3069.07	142.596
3067.22	187.326
3065.38	183.17
3063.54	154.606
3061.7	207.403
3059.85	158.529
3058.01	130.016
3056.16	255.851
3054.31	138.015
3052.46	194.756
3050.61	154.111
3048.76	162.148
3046.91	194.488
3045.06	214.649
3043.21	170.021
3041.36	161.85
3039.5	121.332
3037.65	149.574
3035.79	153.546
3033.93	145.398
3032.08	161.479
3030.22	165.44
3028.36	137.131
3026.5	153.194
3024.64	157.153
3022.78	217.497
3020.91	112.724
3019.05	124.745
3017.19	136.754
3015.32	188.955
3013.45	172.795
3011.59	228.948
3009.72	204.754
3007.85	220.711
3005.98	200.555
3004.11	200.462
3002.24	208.385
3000.37	188.261
2998.49	284.264
2996.62	208.097
2994.75	228.002
2992.87	183.917
2990.99	159.854
2989.12	251.654
2987.24	127.765
2985.36	179.587
2983.48	171.526
2981.6	195.37
2979.72	155.427
2977.84	183.24
2975.95	254.825
2974.07	254.707
2972.18	282.435
2970.3	182.902
2968.41	242.432
2966.52	254.238
2964.63	281.915
2962.74	234.159
2960.85	273.72
2958.96	241.873
2957.07	206.092
2955.18	221.842
2953.28	269.256
2951.39	225.595
2949.49	257.139
2947.6	268.883
2945.7	217.378
2943.8	280.486
2941.9	209.28
2940	280.226
2938.1	358.997
2936.2	323.342
2934.3	335.017
2932.39	319.104
2930.49	330.769
2928.58	303.065
2926.68	361.936
2924.77	251.665
2922.86	314.435
2920.95	243.575
2919.04	278.803
2917.13	286.524
2915.22	321.7
2913.31	380.371
2911.4	384.114
2909.48	242.898
2907.57	387.674
2905.65	301.384
2903.74	328.631
2901.82	387.135
2899.9	390.864
2897.98	300.826
2896.06	386.596
2894.14	366.901
2892.22	355.027
2890.29	323.665
2888.37	311.822
2886.44	307.781
2884.52	354.368
2882.59	350.311
2880.66	322.914
2878.74	318.876
2876.81	299.293
2874.88	264.188
2872.95	306.781
2871.01	256.179
2869.08	271.579
2867.15	329.621
2865.21	461.255
2863.28	728.366
2861.34	333.034
2859.4	290.301
2857.47	305.642
2855.53	282.297
2853.59	235.782
2851.65	289.761
2849.7	332.104
2847.76	304.931
2845.82	304.789
2843.87	254.515
2841.93	273.669
2839.98	211.898
2838.03	296.519
2836.09	269.437
2834.14	234.686
2832.19	249.958
2830.23	238.311
2828.28	280.461
2826.33	234.248
2824.38	222.624
2822.42	291.578
2820.47	226.251
2818.51	283.64
2816.55	218.377
2814.59	271.887
2812.64	153.104
2810.68	252.504
2808.71	248.562
2806.75	240.801
2804.79	259.791
2802.83	309.312
2800.86	190.844
2798.9	202.2
2796.93	301.252
2794.96	255.373
2792.99	186.678
2791.02	228.478
2789.05	197.922
2787.08	251.091
2785.11	197.736
2783.14	239.453
2781.16	250.738
2779.19	197.459
2777.21	220.139
2775.24	204.861
2773.26	235.101
2771.28	189.509
2769.3	155.324
2767.32	265.063
2765.34	189.242
2763.36	283.73
2761.37	363.005
2759.39	200.315
2757.41	245.554
2755.42	230.335
2753.43	230.227
2751.45	184.849
2749.46	252.635
2747.47	203.52
2745.48	256.165
2743.48	195.799
2741.49	206.997
2739.5	240.756
2737.5	308.324
2735.51	281.871
2733.51	176.556
2731.52	285.361
2729.52	243.944
2727.52	266.337
2725.52	299.957
2723.52	258.591
2721.52	198.534
2719.51	258.348
2717.51	250.741
2715.5	205.736
2713.5	243.028
2711.49	298.97
2709.48	254.005
2707.48	242.684
2705.47	279.889
2703.46	276.027
2701.45	305.723
2699.43	301.853
2697.42	301.71
2695.41	297.845
2693.39	260.492
2691.37	226.893
2689.36	249.093
2687.34	241.543
2685.32	267.429
2683.3	256.165
2681.28	233.78
2679.26	226.251
2677.24	211.315
2675.21	255.682
2673.19	288.895
2671.16	292.461
2669.14	222.017
2667.11	269.993
2665.08	262.472
2663.05	254.958
2661.02	240.064
2658.99	273.175
2656.96	291.495
2654.92	232.348
2652.89	272.787
2650.85	283.712
2648.82	235.701
2646.78	310.648
2644.74	261.233
2642.7	330.984
2640.66	249.959
2638.62	282.907
2636.58	279.101
2634.54	245.933
2632.49	297.181
2630.45	322.71
2628.4	293.234
2626.36	304.086
2624.31	230.703
2622.26	267.196
2620.21	325.605
2618.16	358.361
2616.11	285.091
2614.05	273.996
2612	310.381
2609.95	255.487
2607.89	291.846
2605.83	317.232
2603.78	328.015
2601.72	295.073
2599.66	338.627
2597.6	309.351
2595.54	261.914
2593.47	330.873
2591.41	294.373
2589.35	290.601
2587.28	279.57
2585.21	293.953
2583.15	380.87
2581.08	293.674
2579.01	282.663
2576.94	297.017
2574.87	286.014
2572.8	238.835
2570.72	198.934
2568.65	303.682
2566.57	321.605
2564.5	278.11
2562.42	328.519
2560.34	375.271
2558.26	371.486
2556.18	353.284
2554.1	295.464
2552.02	313.331
2549.94	327.58
2547.85	334.62
2545.77	287.708
2543.68	327.112
2541.59	323.363
2539.51	301.661
2537.42	323.054
2535.33	269.083
2533.24	247.439
2531.14	326.176
2529.05	365.429
2526.96	272.151
2524.86	375.818
2522.76	354.173
2520.67	350.428
2518.57	335.964
2516.47	360.81
2514.37	310.648
2512.27	353.327
2510.17	239.006
2508.06	399.342
2505.96	374.204
2503.85	370.462
2501.75	277.714
2499.64	380.784
2497.53	345.031
2495.42	312.868
2493.31	280.736
2491.2	412.022
2489.09	355.021
2486.98	344.206
2484.86	315.666
2482.75	382.872
2480.63	347.254
2478.51	318.754
2476.4	361.081
2474.28	318.448
2472.16	357.198
2470.04	371.167
2467.91	363.922
2465.79	261.333
2463.66	402.401
2461.54	349.285
2459.41	476.07
2457.29	373.623
2455.16	338.213
2453.03	390.871
2450.9	359.006
2448.77	376.423
2446.63	341.08
2444.5	347.945
2442.36	379.394
2440.23	354.633
2438.09	354.462
2435.95	371.831
2433.82	455.799
2431.68	371.473
2429.54	385.305
2427.39	381.618
2425.25	388.433
2423.11	374.255
2420.96	409.035
2418.82	440.288
2416.67	338.788
2414.52	356.08
2412.37	362.887
2410.22	376.662
2408.07	397.396
2405.92	390.236
2403.76	355.222
2401.61	403.783
2399.46	417.505
2397.3	403.393
2395.14	406.674
2392.98	385.633
2390.82	371.557
2388.66	402.615
2386.5	350.383
2384.34	450.77
2382.18	377.771
2380.01	495.368
2377.84	460.504
2375.68	408.37
2373.51	543.077
2371.34	487.496
2369.17	397.411
2367	469.754
2364.83	407.384
2362.65	427.891
2360.48	382.846
2358.31	441.266
2356.13	478.955
2353.95	440.839
2351.77	409.644
2349.59	378.479
2347.41	419.564
2345.23	415.923
2343.05	367.622
2340.87	449.861
2338.68	429.048
2336.5	542.054
2334.31	476.639
2332.12	462.698
2329.93	465.899
2327.74	424.585
2325.55	554.43
2323.36	444.697
2321.17	464.995
2318.97	440.848
2316.78	413.307
2314.58	454.076
2312.38	549.404
2310.18	494.564
2307.98	450.005
2305.78	361.192
2303.58	500.655
2301.38	462.966
2299.17	449.13
2296.97	482.92
2294.76	489.484
2292.56	496.041
2290.35	543.342
2288.14	495.558
2285.93	430.857
2283.72	461.166
2281.5	406.713
2279.29	484.43
2277.08	504.51
2274.86	527.954
2272.64	547.993
2270.43	517.297
2268.21	533.941
2265.99	472.882
2263.77	580.686
2261.54	502.791
2259.32	509.291
2257.1	485.444
2254.87	495.316
2252.64	528.752
2250.42	474.635
2248.19	528.236
2245.96	480.897
2243.73	514.275
2241.49	524.103
2239.26	500.341
2237.03	526.947
2234.79	452.886
2232.56	549.903
2230.32	485.957
2228.08	485.719
2225.84	515.615
2223.6	542.135
2221.36	458.248
2219.11	521.545
2216.87	517.948
2214.62	524.374
2212.38	554.162
2210.13	540.544
2207.88	516.934
2205.63	470.013
2203.38	449.792
2201.13	552.806
2198.88	612.448
2196.62	632.11
2194.37	508.765
2192.11	518.486
2189.86	504.944
2187.6	584.385
2185.34	590.736
2183.08	603.714
2180.81	616.68
2178.55	576.61
2176.29	543.205
2174.02	582.665
2171.76	516.2
2169.49	558.941
2167.22	555.361
2164.95	565
2162.68	610.957
2160.41	617.258
2158.14	620.254
2155.86	669.413
2153.59	596.572
2151.31	573.218
2149.03	579.521
2146.75	608.856
2144.48	582.24
2142.19	624.696
2139.91	624.388
2137.63	725.904
2135.35	551.547
2133.06	620.184
2130.77	629.718
2128.49	593.348
2126.2	661.863
2123.91	615.687
2121.62	615.383
2119.33	647.797
2117.03	634.397
2114.74	630.815
2112.44	607.636
2110.15	653.049
2107.85	561.345
2105.55	678.501
2103.25	639.041
2100.95	635.466
2098.65	612.352
2096.34	657.627
2094.04	628.016
2091.73	676.491
2089.43	666.405
2087.12	688.819
2084.81	665.745
2082.5	574.53
2080.19	619.666
2077.87	677.728
2075.56	683.875
2073.25	641.423
2070.93	783.573
2068.61	644.024
2066.3	656.644
2063.98	691.882
2061.66	743.243
2059.33	649.208
2057.01	758.648
2054.69	726.005
2052.36	735.32
2050.04	635.027
2047.71	702.372
2045.38	640.838
2043.05	766.049
2040.72	723.846
2038.39	745.996
2036.05	710.272
2033.72	751.679
2031.38	796.256
2029.05	757.351
2026.71	805.087
2024.37	782.246
2022.03	711.362
2019.69	698.197
2017.35	729.861
2015	739.097
2012.66	645.988
2010.31	773.522
2007.96	750.773
2005.62	798.297
2003.27	714.918
2000.92	810.263
1998.56	688.699
1996.21	732.972
1993.86	809.052
1991.5	779.996
1989.14	801.882
1986.79	852.37
1984.43	782.009
1982.07	864.229
1979.71	793.932
1977.34	736.402
1974.98	774.105
1972.62	805.428
1970.25	836.72
1967.88	896.491
1965.51	769.394
1963.14	920.913
1960.77	784.441
1958.4	897.863
1956.03	834.216
1953.65	833.799
1951.28	893.361
1948.9	896.069
1946.52	917.696
1944.15	876.261
1941.77	935.681
1939.38	837.598
1937	859.21
1934.62	915.403
1932.23	908.656
1929.85	914.486
1927.46	958.002
1925.07	888.455
1922.68	1032.35
1920.29	915.791
1917.9	902.793
1915.5	946.205
1913.11	983.309
1910.71	1045.42
1908.32	894.727
1905.92	919.293
1903.52	1003.21
1901.12	1021.45
1898.72	949.131
1896.31	1029.79
1893.91	960.654
1891.5	957.055
1889.1	919.183
1886.69	999.694
1884.28	1092.57
1881.87	983.133
1879.46	1019.95
1877.05	982.145
1874.63	1025.14
1872.22	993.577
1869.8	1017.9
1867.38	1051.51
1864.96	1091.29
1862.54	1090.74
1860.12	1099.48
1857.7	1117.5
1855.28	1067.43
1852.85	1066.89
1850.43	1183.81
1848	1084.35
1845.57	1133.21
1843.14	1046.23
1840.71	1088.88
1838.28	1134.58
1835.84	1137.09
1833.41	1142.68
1830.97	1108.24
1828.54	1129.22
1826.1	1060.99
1823.66	1097.34
1821.22	1216.6
1818.78	1169.93
1816.33	1279.83
1813.89	1220.89
1811.44	1177.35
1809	1185.95
1806.55	1200.67
1804.1	1209.24
1801.65	1202.51
1799.19	1140.74
1796.74	1216.58
1794.29	1130.42
1791.83	1193.97
1789.37	1217.79
1786.92	1326.99
1784.46	1167.77
1782	1218.98
1779.53	1245.78
1777.07	1302.99
1774.61	1177.57
1772.14	1280.38
1769.67	1221.98
1767.21	1263.89
1764.74	1354.35
1762.27	1365.8
1759.79	1301.41
1757.32	1276.49
1754.85	1309.18
1752.37	1281.25
1749.89	1265.46
1747.42	1282.98
1744.94	1303.5
1742.46	1336.08
1739.97	1365.62
1737.49	1271.31
1735.01	1352.16
1732.52	1327.34
1730.03	1305.56
1727.55	1347.08
1725.06	1451.82
1722.56	1390.87
1720.07	1414.23
1717.58	1428.55
1715.08	1397.76
1712.59	1406.07
1710.09	1408.35
1707.59	1395.63
1705.09	1481.91
1702.59	1406.2
1700.09	1474.41
1697.59	1422.74
1695.08	1395.07
1692.58	1540.98
1690.07	1429.53
1687.56	1458.7
1685.05	1559.53
1682.54	1502
1680.03	1566.89
1677.51	1610.84
1675	1604.05
1672.48	1576.41
1669.96	1474.34
1667.44	1577.78
1664.92	1571.02
1662.4	1558.32
1659.88	1634.81
1657.36	1595.35
1654.83	1680.65
1652.3	1656.04
1649.78	1643.33
1647.25	1624.7
1644.72	1686.1
1642.18	1563.8
1639.65	1622.21
1637.12	1559.24
1634.58	1700.39
1632.04	1646.32
1629.5	1680.92
1626.97	1653.49
1624.42	1572.96
1621.88	1557.4
1619.34	1630.31
1616.79	1538.13
1614.25	1608.02
1611.7	1695.5
1609.15	1665.21
1606.6	1590.84
1604.05	1660.56
1601.5	1686.15
1598.94	1652.98
1596.39	1625.72
1593.83	1627.82
1591.27	1741.31
1588.71	1652.52
1586.15	1675.09
1583.59	1683.01
1581.03	1711.4
1578.46	1663.74
1575.9	1648.27
1573.33	1737.97
1570.76	1664.09
1568.19	1756.61
1565.62	1685.71
1563.05	1644.03
1560.47	1695.63
1557.9	1811.23
1555.32	1711.34
1552.74	1655.19
1550.17	1677.59
1547.59	1752.28
1545	1821.09
1542.42	1709.83
1539.84	1807.6
1537.25	1763.17
1534.66	1791.24
1532.07	1752.66
1529.48	1786.5
1526.89	1779.79
1524.3	1799.12
1521.71	1884.91
1519.11	1719.24
1516.52	1758.78
1513.92	1850.24
1511.32	1855.05
1508.72	1782.01
1506.12	1809.9
1503.51	1935.71
1500.91	1851.22
1498.3	1867.52
1495.69	1837.8
1493.09	1868.46
1490.48	1812.91
1487.86	1932.58
1485.25	1957.4
1482.64	2079.74
1480.02	2081.53
1477.41	1983.02
1474.79	2016.36
1472.17	1975.24
1469.55	2074.35
1466.93	2076.14
1464.3	2192.24
1461.68	2093.98
1459.05	2121.44
1456.42	2114.63
1453.79	2065.05
1451.16	2092.48
1448.53	2042.95
1445.9	2135.87
1443.26	2046.52
1440.63	2184.86
1437.99	2178.03
1435.35	2222.37
1432.71	2243.94
1430.07	2220.06
1427.43	2241.6
1424.78	2209.24
1422.14	2273.28
1419.49	2226.77
1416.84	2290.74
1414.19	2298.03
1411.54	2336.44
1408.89	2301.29
1406.24	2382.04
1403.58	2392.09
1400.92	2306.16
1398.27	2372.67
1395.61	2346.05
1392.95	2491.38
1390.28	2622.47
1387.62	2683.04
1384.96	2664.75
1382.29	2643.68
1379.62	2774.41
1376.95	2789.82
1374.28	2824.86
1371.61	2736.38
1368.94	2608.72
1366.26	2671.84
1363.59	2729.29
1360.91	2657.84
1358.23	2620.06
1355.55	2607.5
1352.87	2572.58
1350.19	2629.92
1347.5	2541.95
1344.82	2666.26
1342.13	2628.58
1339.44	2677.41
1336.75	2748.48
1334.06	2755.4
1331.36	2500.55
1328.67	2513.16
1325.97	2528.53
1323.28	2710.7
1320.58	2684.27
1317.88	2588.43
1315.18	2670.34
1312.47	2496.93
1309.77	2370.84
1307.06	2488.77
1304.36	2432.06
1301.65	2530.45
1298.94	2390.76
1296.23	2696.49
1293.52	2592.8
1290.8	2768.25
1288.09	2794.4
1285.37	2809.49
1282.65	2796.98
1279.93	2737.61
1277.21	2601.15
1274.49	2470.35
1271.76	2336.92
1269.04	2140.36
1266.31	2337.21
1263.58	2215.06
1260.85	2271.57
1258.12	2155.07
1255.39	2140.21
1252.65	2199.42
1249.92	2096.84
1247.18	2142.31
1244.44	2097.37
1241.7	2107.21
1238.96	2073.27
1236.21	2110.45
1233.47	1931.73
1230.72	1922.52
1227.98	2038.87
1225.23	1983.23
1222.48	1968.55
1219.73	2027.46
1216.97	1898.38
1214.22	1992.65
1211.46	1801.14
1208.7	2015.01
1205.95	1973.18
1203.19	1969.42
1200.42	1933.08
1197.66	1948.34
1194.89	1876.79
1192.13	2008.62
1189.36	1983.17
1186.59	2017.32
1183.82	1959.42
1181.05	2009.77
1178.27	2051.96
1175.5	1972.51
1172.72	2030.88
1169.94	2086.49
1167.17	2115.05
1164.38	2208.3
1161.6	2220.6
1158.82	2232.89
1156.03	2347.46
1153.25	2300.47
1150.46	2369.17
1147.67	2295.34
1144.88	2390.83
1142.08	2448.62
1139.29	2471.47
1136.49	2499.66
1133.69	2557.3
1130.9	2593.45
1128.1	2776.83
1125.29	2898.46
1122.49	2931.69
1119.69	2956.87
1116.88	3011.4
1114.07	2860.24
1111.26	2770.63
1108.45	2745.15
1105.64	2746.35
1102.83	2939.42
1100.01	3076.36
1097.19	3306.32
1094.37	3293.91
1091.55	3281.51
1088.73	2998.03
1085.91	2852.98
1083.09	2644.37
1080.26	2507.62
1077.43	2540.76
1074.6	2451.93
1071.77	2347.29
1068.94	2216.29
1066.11	2302.44
1063.27	2287.98
1060.44	2249.75
1057.6	2282.89
1054.76	2255.26
1051.92	2201.26
1049.08	2149.96
1046.23	2069.71
1043.39	2179.28
1040.54	2146.51
1037.69	2203.27
1034.84	2067.91
1031.99	2008.95
1029.14	2044.67
1026.28	2088.22
1023.42	2039.85
1020.57	2030.88
1017.71	1935.38
1014.85	1989.38
1011.98	1891.39
1009.12	1934.88
1006.25	1907.67
1003.39	2019.11
1000.52	1970.97
997.648	2058.74
994.776	2083.75
991.903	2061.75
989.028	2071.07
986.152	1950.03
983.274	1954.2
980.394	1984.39
977.513	1892.23
974.631	1987.46
971.747	1978.59
968.861	1943.74
965.974	1903.74
963.085	1998.75
960.195	1958.76
957.303	1960.3
954.409	1899.63
951.514	1932.28
948.618	1962.3
945.72	1868.1
942.82	1952.42
939.919	1884.17
937.016	1846.99
934.111	1840.83
931.205	1881.12
928.298	1952.31
925.389	2010.54
922.478	1857.46
919.566	2018.67
916.652	2012.43
913.736	2067.92
910.819	2033.39
907.901	2083.67
904.98	2090.25
902.059	2137.88
899.135	2321.41
896.21	2302.2
893.284	2201.02
890.356	2107.64
887.426	2109.05
884.495	2023.49
881.562	2078.64
878.628	2128.62
875.691	2096.82
872.754	2141.63
869.815	2191.49
866.874	2187.75
863.931	2245.17
860.987	2266.88
858.042	2314.01
855.094	2478.14
852.145	2403.04
849.195	2396.65
846.243	2382.65
843.289	2371.2
840.334	2316.62
837.377	2099.8
834.419	2179.77
831.459	2181.11
828.497	2144.48
825.533	2049.68
822.569	1987.87
819.602	2095.48
816.634	2005.91
813.664	1888.67
810.693	2026.44
807.72	1974.89
804.745	1973.81
801.769	1950.06
798.791	1898.63
795.811	1995.75
792.83	1989.63
789.847	2011.17
786.863	1982.43
783.877	1961.26
780.889	1975.24
777.9	1991.72
774.909	2040.78
771.916	1951.96
768.922	2053.57
765.926	2019.91
762.928	2053.83
759.929	1995.2
756.928	2141.54
753.926	2095.41
750.922	2036.85
747.916	2068.17
744.909	2049.58
741.9	2073.38
738.889	2094.65
735.877	2008.87
732.863	2020.21
729.847	2101.16
726.83	2090.06
723.811	2098.85
720.79	2070.39
717.768	2069.25
714.744	2105.31
711.718	2213.21
708.691	2211.99
705.662	2290
702.632	2219.46
699.599	2178.67
696.565	2103.32
693.53	2228.15
690.493	2088.67
687.454	2203.49
684.413	2281.19
681.371	2164.09
678.327	2140.73
675.281	2356.21
672.234	2268.79
669.185	2272.46
666.134	2234.34
663.082	2201.17
660.028	2141.03
656.972	2267.45
653.915	2187.72
650.855	2309.07
647.795	2386.19
644.732	2340.8
641.668	2363.98
638.602	2362.68
635.535	2376.04
632.465	2272.11
629.394	2275.74
626.322	2401.38
623.247	2370.79
620.171	2381.67
617.093	2399.84
614.014	2432.6
610.933	2460.46
607.85	2400.72
604.765	2496.63
601.679	2405.35
598.591	2513.29
595.501	2392.98
592.41	2425.61
589.317	2523.66
586.222	2531.96
583.125	2402.21
580.027	2383.93
576.927	2469.69
573.825	2490.08
570.722	2546.68
567.617	2504.22
564.51	2399.05
561.401	2429.07
558.291	2548.26
555.179	2385.41
552.065	2516.53
548.949	2491.07
545.832	2407.9
542.713	2517.15
539.592	2402.81
536.47	2528.76
533.345	2592.15
530.219	2497.16
527.092	2495.76
523.962	2518.34
520.831	2655.83
517.698	2584.94
514.563	2576.32
511.427	2703.99
508.289	2642.75
505.149	2648.44
502.007	2728.11
498.864	2669.34
495.718	2562.95
492.572	2516.24
489.423	2557.7
486.272	2513.43
483.12	2514.41
479.966	2505.87
476.81	2551.99
473.653	2550.56
470.493	2587.11
467.332	2675.81
464.17	2740.7
461.005	2819.73
457.839	2784.99
454.67	2837.87
451.5	2796.07
448.329	2742.49
445.155	2804.75
441.98	2881.11
438.803	2995.15
435.624	2880.24
432.444	2895.13
429.261	2721.5
426.077	2804.75
422.891	2805.53
419.703	2853.35
416.514	2708.34
413.322	2843.1
410.129	2742.88
406.934	2783.58
403.738	2859.43
400.539	3050.06
397.339	2741.4
394.137	2767.96
390.933	2698.53
387.727	2818.65
384.519	3149.03
381.31	3306.14
378.099	3138.48
374.886	3050.36
371.671	2918.02
368.455	2925.7
365.236	2877.46
362.016	2985.28
358.794	2918.43
355.57	2867.94
352.345	2861.67
349.117	2904.2
345.888	2942.04
342.657	2798.81
339.424	2792.59
336.189	2846.65
332.952	3016.49
329.714	2896.69
326.474	2885.8
323.232	2789.34
319.988	2725.35
316.742	2820.84
313.494	2860.81
310.245	2863.81
306.994	2811.45
303.741	2874.4
300.486	2773.71
297.229	2705.37
293.97	2719.94
290.71	2603.41
287.447	2732.95
284.183	2756.67
280.917	2734.44
277.649	2705.36
274.379	2763.45
271.108	2596.86
267.834	2806.13
264.559	2728.99
261.282	2851
258.003	2707.59
254.722	2653.49
251.439	2770.76
248.154	2883.33
244.868	2870.29
241.58	2807.09
238.289	2969.58
234.997	2947.39
231.703	2847.83
228.407	2994.09
225.11	3042.41
221.81	2947.51
218.509	2923.11
215.205	2985.01
211.9	2976.5
208.593	2995.21
205.284	3002.57
201.973	3055.21
198.66	2983.3
195.345	3013.27
192.029	3124.6
188.71	3025.65
185.39	3087.16
182.067	3006.4
178.743	3103.93
175.417	3070.6
172.089	2992.24
168.759	3125.64
165.428	3126.1
162.094	3151.31
158.758	3154
155.421	3188.15
152.081	3345.75
148.74	3482.98
145.397	3472.01
142.052	3588.83
138.705	3683.11
135.356	3806.38
132.005	3846.72
128.652	3965.29
125.297	4166.42
121.94	4271.25
118.582	4552.35
115.221	4679.16
111.859	4892.79
108.494	4586.87
105.128	4363.71
101.76	4038.4
100.637	4017.59