File: Spicy-Raman/model_train_and_validate/Raman_Data/cellulose/20180911 NBay_Control 4e_1.txt
3201.2	345.32
3199.42	353.635
3197.64	319.811
3195.85	378.552
3194.07	306.908
3192.28	306.769
3190.5	352.835
3188.71	356.873
3186.93	306.352
3185.14	390.107
3183.35	385.738
3181.56	318.508
3179.77	397.955
3177.98	401.961
3176.19	364.112
3174.4	338.847
3172.6	351.237
3170.81	300.924
3169.01	367.629
3167.22	363.286
3165.42	392.338
3163.62	354.612
3161.82	408.661
3160.03	325.113
3158.23	374.96
3156.42	287.339
3154.62	391.269
3152.82	465.981
3151.02	365.961
3149.21	469.714
3147.41	344.854
3145.6	353.003
3143.8	336.238
3141.99	356.831
3140.18	406.437
3138.37	248.725
3136.56	389.493
3134.75	327.19
3132.94	430.536
3131.13	384.823
3129.32	388.783
3127.5	359.668
3125.69	351.239
3123.87	313.906
3122.05	375.69
3120.24	350.759
3118.42	358.849
3116.6	399.913
3114.78	375.005
3112.96	490.168
3111.14	387.015
3109.32	411.53
3107.49	399.002
3105.67	501.608
3103.85	369.87
3102.02	464.18
3100.19	377.744
3098.37	488.381
3096.54	397.91
3094.71	487.935
3092.88	413.94
3091.05	405.558
3089.22	397.184
3087.39	495.229
3085.55	486.821
3083.72	552.024
3081.88	486.376
3080.05	428.959
3078.21	445.097
3076.37	428.567
3074.54	391.653
3072.7	493.42
3070.86	493.195
3069.02	590.748
3067.18	525.321
3065.33	557.644
3063.49	423.127
3061.65	500.2
3059.8	552.813
3057.96	467.238
3056.11	536.063
3054.26	547.995
3052.41	531.514
3050.56	470.438
3048.71	567.51
3046.86	526.732
3045.01	558.89
3043.16	627.45
3041.31	509.822
3039.45	634.964
3037.6	565.95
3035.74	448.511
3033.89	609.857
3032.03	621.688
3030.17	488.245
3028.31	633.217
3026.45	584.55
3024.59	543.986
3022.73	604.151
3020.86	595.822
3019	607.62
3017.14	563.097
3015.27	590.981
3013.4	626.875
3011.54	602.487
3009.67	662.431
3007.8	706.268
3005.93	681.877
3004.06	609.398
3002.19	669.228
3000.32	560.771
2998.44	592.542
2996.57	644.293
2994.7	751.996
2992.82	727.661
2990.94	791.267
2989.07	730.985
2987.19	762.589
2985.31	794.164
2983.43	821.721
2981.55	833.304
2979.67	848.861
2977.78	864.403
2975.9	792.336
2974.02	851.667
2972.13	755.804
2970.25	827.025
2968.36	810.746
2966.47	957.351
2964.58	837.792
2962.69	833.437
2960.8	1015.53
2958.91	979.376
2957.02	927.401
2955.13	978.471
2953.23	966.141
2951.34	1040.89
2949.44	1064.15
2947.55	980.619
2945.65	1134.3
2943.75	1193.04
2941.85	1097.72
2939.95	1247.19
2938.05	1337.35
2936.15	1210.55
2934.25	1225.75
2932.34	1256.7
2930.44	1264
2928.53	1109.91
2926.63	1164.47
2924.72	1179.66
2922.81	1273.45
2920.9	1155
2918.99	1346.88
2917.08	1377.65
2915.17	1271.09
2913.26	1297.95
2911.35	1403.18
2909.43	1281.08
2907.52	1417.54
2905.6	1217.26
2903.68	1357.54
2901.77	1552.43
2899.85	1500.9
2897.93	1648.66
2896.01	1585.42
2894.09	1416.84
2892.17	1560.54
2890.24	1438.93
2888.32	1379.79
2886.39	1394.74
2884.47	1335.68
2882.54	1389.55
2880.61	1318.87
2878.69	1314.37
2876.76	1337.08
2874.83	1328.69
2872.89	1265.94
2870.96	1412.85
2869.03	1322.96
2867.1	1314.59
2865.16	1639.57
2863.23	2460.14
2861.29	5642.14
2859.35	3371.32
2857.41	3725.69
2855.47	3928.9
2853.53	3103.78
2851.59	3565.95
2849.65	3525.67
2847.71	4496.71
2845.77	4212.97
2843.82	4801.02
2841.88	5026.19
2839.93	4234.06
2837.98	3515.83
2836.03	3433.36
2834.08	4874.48
2832.13	3633.96
2830.18	9974.33
2828.23	3619.05
2826.28	4853.87
2824.32	9338.57
2822.37	4860.85
2820.41	3366.88
2818.46	7639.01
2816.5	1689.53
2814.54	1497.27
2812.58	1316.68
2810.62	1725.42
2808.66	1326.92
2806.7	1398.92
2804.74	1295.12
2802.77	1416.71
2800.81	1221.39
2798.84	1358.16
2796.88	1468.11
2794.91	1223.49
2792.94	1443.88
2790.97	1420.35
2789	1450.14
2787.03	1278.26
2785.06	1422.16
2783.09	1470.91
2781.11	1443.63
2779.14	1401.18
2777.16	1491.62
2775.18	1354.34
2773.21	1406.8
2771.23	1474.36
2769.25	1469.88
2767.27	1454.04
2765.29	1544.2
2763.31	1516.99
2761.32	1523.84
2759.34	1504.23
2757.35	1575.3
2755.37	1457.51
2753.38	1622.89
2751.39	1550.45
2749.4	1613.82
2747.41	1680.91
2745.42	1698.95
2743.43	1543.78
2741.44	1588.21
2739.45	1651.42
2737.45	1522.8
2735.46	1597.25
2733.46	1765.54
2731.46	1667.09
2729.46	1767.64
2727.47	1688.03
2725.47	1702.23
2723.46	1783.88
2721.46	1726.85
2719.46	1714.81
2717.46	1702.77
2715.45	1799.23
2713.45	1790.9
2711.44	1745.22
2709.43	1875.13
2707.42	1807.04
2705.41	1787.53
2703.4	1920.97
2701.39	1886.51
2699.38	1799.91
2697.37	1907.08
2695.35	1824.28
2693.34	1842.02
2691.32	1785.36
2689.3	1817.98
2687.29	1817.12
2685.27	1853.41
2683.25	1889.66
2681.23	1985.25
2679.2	2010.27
2677.18	1890.69
2675.16	1834.22
2673.13	1925.94
2671.11	2006.48
2669.08	1994.43
2667.05	1945.41
2665.03	2036.91
2663	1862.28
2660.97	1994.36
2658.93	2070.93
2656.9	2066.27
2654.87	2091.1
2652.83	1979.53
2650.8	2059.65
2648.76	2010.8
2646.73	2112.92
2644.69	2093.52
2642.65	2136.66
2640.61	2201.81
2638.57	2182.4
2636.53	2229.11
2634.48	2161.98
2632.44	2252.68
2630.39	2266.28
2628.35	2323.85
2626.3	2220.17
2624.25	2215.45
2622.2	2309.57
2620.15	2363.35
2618.1	2263.5
2616.05	2448.83
2614	2440.36
2611.95	2362.52
2609.89	2306.65
2607.84	2484.31
2605.78	2322.69
2603.72	2485.59
2601.66	2393.34
2599.6	2355.8
2597.54	2365.59
2595.48	2411.76
2593.42	2483.33
2591.36	2405.83
2589.29	2491.87
2587.23	2548.78
2585.16	2478.61
2583.09	2542.73
2581.02	2505.26
2578.95	2591.04
2576.88	2463.03
2574.81	2592.2
2572.74	2670.57
2570.67	2607.81
2568.59	2639.11
2566.52	2576.42
2564.44	2658.27
2562.36	2736.42
2560.29	2738.72
2558.21	2636.43
2556.13	2772.16
2554.05	2702.38
2551.96	2708.3
2549.88	2764.6
2547.8	2712.91
2545.71	2751.17
2543.63	2728.29
2541.54	2622.8
2539.45	2765.19
2537.36	2932.58
2535.27	2827.13
2533.18	2789.92
2531.09	2845.94
2528.99	2755.02
2526.9	2828.9
2524.81	2838.28
2522.71	2919.21
2520.61	2924.97
2518.51	2791.33
2516.41	2947.18
2514.31	2917.2
2512.21	3040.72
2510.11	2989.32
2508.01	3091.29
2505.9	2897.37
2503.8	3042.03
2501.69	3126.02
2499.59	3185.02
2497.48	3115.91
2495.37	3217.52
2493.26	3240.86
2491.15	3210.89
2489.03	3262.6
2486.92	3289.43
2484.81	3209.82
2482.69	3165.74
2480.58	3334.31
2478.46	3318.54
2476.34	3366.51
2474.22	3276.44
2472.1	3235.96
2469.98	3418.22
2467.86	3458.98
2465.73	3460.85
2463.61	3381.53
2461.48	3478.7
2459.36	3477.03
2457.23	3538.8
2455.1	3427.89
2452.97	3440.33
2450.84	3582.98
2448.71	3535.52
2446.58	3554.92
2444.44	3662.16
2442.31	3751.73
2440.17	3637.57
2438.04	3765.67
2435.9	3718.26
2433.76	3611.29
2431.62	3875.88
2429.48	3796.96
2427.34	3700.6
2425.19	3719.82
2423.05	3847.44
2420.9	3810.62
2418.76	3794.81
2416.61	3883.79
2414.46	3742.28
2412.31	3782.35
2410.16	3808.42
2408.01	3942.54
2405.86	3766.43
2403.71	4112.86
2401.55	3846.33
2399.4	3990.6
2397.24	4086.04
2395.08	4031.93
2392.93	3939.66
2390.77	4073.18
2388.61	4161.46
2386.44	4058.84
2384.28	4147.03
2382.12	4307.92
2379.95	4146.49
2377.79	4231.05
2375.62	4287.83
2373.45	4309.97
2371.28	4439.27
2369.11	4347.27
2366.94	4352.08
2364.77	4160.09
2362.6	4399.63
2360.42	4328.52
2358.25	4254.03
2356.07	4441.48
2353.89	4401.44
2351.72	4554.22
2349.54	4441.91
2347.36	4374.42
2345.17	4530.41
2342.99	4620.98
2340.81	4519.15
2338.62	4393.4
2336.44	4610.83
2334.25	4642.88
2332.06	4561.8
2329.87	4682.91
2327.68	4855.27
2325.49	4709.17
2323.3	4768.46
2321.11	4708.02
2318.91	4726.24
2316.72	4840.07
2314.52	4865.04
2312.32	4787.6
2310.12	4689.77
2307.93	4772.72
2305.72	4971.44
2303.52	4877.06
2301.32	5041.49
2299.12	5113.9
2296.91	5087.6
2294.7	4952.56
2292.5	5116.63
2290.29	5127.72
2288.08	5006.43
2285.87	5149.87
2283.66	5089.71
2281.45	5171.97
2279.23	5315.11
2277.02	5153.38
2274.8	5272.71
2272.58	5222.78
2270.37	5230.38
2268.15	5312.31
2265.93	5377.27
2263.71	5401.66
2261.48	5233.68
2259.26	5467.22
2257.04	5319.59
2254.81	5387.75
2252.58	5577.09
2250.36	5389.23
2248.13	5302.48
2245.9	5609.27
2243.67	5559.48
2241.43	5724.74
2239.2	5637.99
2236.97	5635.24
2234.73	5565.39
2232.5	5787.32
2230.26	5710.76
2228.02	5811.81
2225.78	5728.61
2223.54	5558.48
2221.3	5729.69
2219.05	5873.99
2216.81	5777.55
2214.56	5788.08
2212.32	5895.41
2210.07	5909.21
2207.82	5963.01
2205.57	5966.75
2203.32	5907.19
2201.07	6007.53
2198.82	6264.2
2196.56	6154.67
2194.31	6111.75
2192.05	5939.25
2189.8	6225.34
2187.54	6235.57
2185.28	6232.51
2183.02	6202.91
2180.75	6299.33
2178.49	6130.55
2176.23	6369.33
2173.96	6356.27
2171.7	6392.85
2169.43	6578.23
2167.16	6565.08
2164.89	6499.07
2162.62	6598.25
2160.35	6654.42
2158.08	6525.78
2155.8	6822.65
2153.53	6634.72
2151.25	6819.23
2148.97	6631.48
2146.69	6638.09
2144.41	6976.92
2142.13	6730.19
2139.85	6835.32
2137.57	6795.82
2135.28	6900.81
2133	6572.55
2130.71	6880.89
2128.43	7077.46
2126.14	6838.07
2123.85	6913.29
2121.56	6890.24
2119.26	6984.99
2116.97	6968.46
2114.68	7141.52
2112.38	7157.6
2110.08	7157.33
2107.79	7225.59
2105.49	7143.74
2103.19	7273.88
2100.89	7156.23
2098.58	7195.04
2096.28	7269.62
2093.98	7269.28
2091.67	7343.74
2089.36	7317.35
2087.06	7138.28
2084.75	7446.51
2082.44	7335.71
2080.13	7529.98
2077.81	7523.01
2075.5	7593.83
2073.18	7667.82
2070.87	7673.74
2068.55	7647.28
2066.23	7734.06
2063.91	7833.69
2061.59	7723.17
2059.27	7557.85
2056.95	7786.53
2054.62	7608.43
2052.3	7904.59
2049.97	7765.28
2047.65	7841.98
2045.32	8073.16
2042.99	8136.75
2040.66	8029.76
2038.32	7778.19
2035.99	7918.95
2033.66	8001.75
2031.32	8222.52
2028.98	8356.42
2026.65	8268.88
2024.31	8158.97
2021.97	8148.51
2019.63	8154.06
2017.28	8242.84
2014.94	8267.54
2012.59	8324.18
2010.25	8431.91
2007.9	8565.09
2005.55	8474.61
2003.2	8661.89
2000.85	8648
1998.5	8379.06
1996.15	8604.34
1993.79	8784.79
1991.44	8774.05
1989.08	8756.94
1986.72	8723.96
1984.36	9167.82
1982	8861.41
1979.64	8876.05
1977.28	9049.37
1974.92	9079.75
1972.55	9008.63
1970.19	9064.35
1967.82	9297.41
1965.45	9302.26
1963.08	9072.93
1960.71	9264.51
1958.34	9332.59
1955.97	9346.89
1953.59	9632.78
1951.22	9119.73
1948.84	9430.69
1946.46	9432.28
1944.08	9503.21
1941.7	9460.65
1939.32	9345.71
1936.94	9643.16
1934.55	9739
1932.17	9696.39
1929.78	9719.82
1927.4	9736.94
1925.01	9754.04
1922.62	9645.6
1920.23	9778.76
1917.83	9943.13
1915.44	9837.89
1913.05	9848.62
1910.65	9871.85
1908.25	10067.1
1905.85	10062.1
1903.46	10025.8
1901.05	10139.4
1898.65	10128.1
1896.25	10204.1
1893.85	10333.1
1891.44	10390.3
1889.03	10515.9
1886.63	10308.2
1884.22	10536.5
1881.81	10441
1879.39	10442
1876.98	10327.9
1874.57	10683.1
1872.15	10416.9
1869.74	10411.7
1867.32	10431.2
1864.9	10714.3
1862.48	10677.9
1860.06	10917.2
1857.64	10812.7
1855.21	10931
1852.79	10971.8
1850.36	10981.8
1847.93	11096.7
1845.51	11159.1
1843.08	10937.4
1840.65	11181.7
1838.21	11139.1
1835.78	11161.2
1833.34	11097.1
1830.91	11223.8
1828.47	11165.9
1826.03	11464.7
1823.59	11372.8
1821.15	11367.1
1818.71	11376.7
1816.27	11687.1
1813.82	11714.9
1811.38	11589.4
1808.93	11534.5
1806.48	11599.1
1804.03	11516.7
1801.58	11584.4
1799.13	11936.3
1796.68	11835.5
1794.22	11942.6
1791.77	11838.8
1789.31	12052.6
1786.85	11778
1784.39	11845.2
1781.93	12006.8
1779.47	12037.3
1777.01	12192.5
1774.54	12180.3
1772.08	12183.2
1769.61	12043.3
1767.14	12356.2
1764.67	12869.2
1762.2	12747.3
1759.73	12586.2
1757.26	12543.4
1754.78	12652.2
1752.31	12603.4
1749.83	12366.9
1747.35	12539.1
1744.87	12541.8
1742.39	12759.1
1739.91	12946
1737.42	12827.7
1734.94	12987.2
1732.45	12935.3
1729.97	12811.2
1727.48	13166.3
1724.99	13204.7
1722.5	13050.5
1720.01	13083
1717.51	13175.6
1715.02	13289.1
1712.52	13111.1
1710.03	13152.5
1707.53	13346.8
1705.03	13445
1702.53	13426.2
1700.02	13359.4
1697.52	13442.5
1695.02	13588.3
1692.51	13793.8
1690	13517.6
1687.49	13806.6
1684.98	13488.9
1682.47	13643.2
1679.96	13866.1
1677.45	13787.4
1674.93	13798.2
1672.41	13850.8
1669.9	14037.3
1667.38	14107.5
1664.86	13939.7
1662.34	14146.6
1659.81	13940.3
1657.29	14221.3
1654.76	14297.2
1652.24	14097
1649.71	14181.7
1647.18	14299
1644.65	14401.3
1642.12	14476.8
1639.58	14593.7
1637.05	14568.5
1634.51	14708.9
1631.98	14917.1
1629.44	14685
1626.9	14981.6
1624.36	14911.9
1621.81	14712.5
1619.27	14852.4
1616.73	14998
1614.18	15046.3
1611.63	14864.9
1609.08	15104.4
1606.53	15081.9
1603.98	15159.4
1601.43	14972.4
1598.87	15305.3
1596.32	15159.5
1593.76	15412.8
1591.2	15399
1588.65	15411.6
1586.08	15280.6
1583.52	15351.8
1580.96	15598.4
1578.4	15306.8
1575.83	15544.4
1573.26	15758.4
1570.69	15738.6
1568.12	15937.6
1565.55	15990.7
1562.98	15793
1560.41	16029.6
1557.83	16056.2
1555.25	15803.5
1552.68	16100.8
1550.1	16185.5
1547.52	16296.3
1544.93	16270.5
1542.35	16256.3
1539.77	16355.2
1537.18	16500.5
1534.59	16477.5
1532.01	16813.7
1529.42	16975.8
1526.82	16509.8
1524.23	16573.6
1521.64	16805
1519.04	16669.2
1516.45	16530.6
1513.85	16626
1511.25	16628.9
1508.65	16588.6
1506.05	16914.3
1503.44	16709.7
1500.84	16888.2
1498.23	16689.5
1495.63	16790.2
1493.02	16979.8
1490.41	17157.7
1487.8	17280.9
1485.18	17392.5
1482.57	17420.8
1479.95	17492.1
1477.34	17408.5
1474.72	17505.4
1472.1	17768.3
1469.48	17787.7
1466.86	17758.4
1464.23	17563.4
1461.61	17811.4
1458.98	17876.4
1456.35	17938.5
1453.72	18145.9
1451.09	17794.4
1448.46	18221.1
1445.83	17980.9
1443.19	18116.7
1440.56	18209.7
1437.92	18433.4
1435.28	18162.4
1432.64	18550.6
1430	18435.9
1427.36	18216.3
1424.71	18425.2
1422.07	18271.1
1419.42	18663.8
1416.77	18555
1414.12	18559.5
1411.47	18586.6
1408.82	18506.2
1406.17	18748
1403.51	18467.1
1400.85	18951.5
1398.2	18766.7
1395.54	18988.1
1392.88	19640.5
1390.21	19483.8
1387.55	19766.4
1384.89	20211.9
1382.22	20277.3
1379.55	20516.9
1376.88	20388.1
1374.21	20371.9
1371.54	20209.7
1368.87	19899
1366.19	19983.9
1363.52	20214.4
1360.84	20007.8
1358.16	20145.7
1355.48	19911.3
1352.8	20105
1350.11	20021.8
1347.43	20374.5
1344.74	20246.5
1342.06	20517.7
1339.37	20646.4
1336.68	20710.9
1333.99	20279.3
1331.29	20608.4
1328.6	20522.5
1325.9	20575.7
1323.21	20145.1
1320.51	20490.2
1317.81	20551.6
1315.11	19838.6
1312.4	19994.6
1309.7	20239.2
1306.99	20184.2
1304.29	20137.6
1301.58	20149.2
1298.87	20335
1296.16	20365.8
1293.44	20216.9
1290.73	20612.4
1288.01	20573.9
1285.3	20720.4
1282.58	20610.2
1279.86	20712.4
1277.14	20583
1274.41	20310.5
1271.69	20429.2
1268.96	20608.3
1266.24	20443.4
1263.51	20259.5
1260.78	20421.9
1258.05	20446.8
1255.31	20713.1
1252.58	21217.8
1249.84	20724.2
1247.11	20609.1
1244.37	20699.6
1241.63	20434.1
1238.88	20702.3
1236.14	20726.9
1233.4	20926.4
1230.65	20732.3
1227.9	20595.8
1225.15	20797.7
1222.4	20786.7
1219.65	20519.6
1216.9	20764.7
1214.14	20634
1211.39	21047.5
1208.63	21044.5
1205.87	21150.2
1203.11	20981.5
1200.35	20747.7
1197.59	21138.4
1194.82	20845.1
1192.05	20937.1
1189.29	21012.7
1186.52	20990.7
1183.75	21261
1180.97	21385
1178.2	21041.1
1175.43	21546
1172.65	21229.4
1169.87	21293.7
1167.09	21533.3
1164.31	21780.7
1161.53	21979.4
1158.74	22223.5
1155.96	22569.8
1153.17	22557.8
1150.38	22949.2
1147.59	22450.5
1144.8	22363.3
1142.01	22147.4
1139.21	22422.7
1136.42	22493.9
1133.62	22819.7
1130.82	23265.7
1128.02	23478.2
1125.22	23572.8
1122.42	24194.2
1119.61	23828.4
1116.8	23799.6
1114	23578.6
1111.19	23061.6
1108.38	23068
1105.56	23279.6
1102.75	23293.9
1099.93	23792.8
1097.12	24597.4
1094.3	24669.4
1091.48	23964.8
1088.66	23606.5
1085.84	23155.6
1083.01	22837.9
1080.19	23038
1077.36	23001.8
1074.53	22849
1071.7	22924.2
1068.87	22957
1066.03	23230.5
1063.2	23146.6
1060.36	23303.4
1057.52	23240.8
1054.68	23492.4
1051.84	23244.9
1049	23105.8
1046.16	23185.7
1043.31	22986.2
1040.46	23129.3
1037.61	23772.3
1034.76	23309.7
1031.91	23368.2
1029.06	23431.9
1026.2	23266.9
1023.35	23286
1020.49	22945.5
1017.63	23064.3
1014.77	23282.5
1011.91	23442.9
1009.04	23027.1
1006.18	22863
1003.31	23386.8
1000.44	23358.6
997.572	23319.9
994.7	23179.4
991.826	23467
988.952	23446.6
986.075	23754.6
983.197	23437
980.318	23575.4
977.437	23325.9
974.554	23919.4
971.67	24059.9
968.784	23800.1
965.897	23623.6
963.008	23686.2
960.118	24122.2
957.226	23855.1
954.332	23769.7
951.437	23886.4
948.541	24220.4
945.642	24168.5
942.743	24481.2
939.841	24119.1
936.938	24224.9
934.034	24423.5
931.128	24301.9
928.22	24196
925.311	24376.2
922.4	24458.3
919.488	24347.3
916.574	24470.5
913.659	24362.1
910.742	24572.5
907.823	24302.3
904.903	24599.8
901.981	24424.8
899.058	24614.2
896.133	24654.7
893.206	24715.7
890.278	24581.9
887.348	24801.5
884.417	24675.5
881.484	24945.9
878.549	25047.4
875.613	25008.2
872.676	25520.5
869.736	25060.2
866.795	25576.9
863.853	25198.6
860.909	25370.8
857.963	25138.1
855.016	25798.7
852.067	25583.8
849.117	25450.4
846.164	25436.6
843.211	25460.8
840.255	25492.6
837.298	25270.8
834.34	25566.3
831.38	25841.1
828.418	25829.6
825.455	25377.8
822.49	25862.2
819.523	25441.1
816.555	25758.2
813.585	25696.2
810.614	25601.4
807.64	25703.5
804.666	25671.8
801.689	25713.2
798.711	25815
795.732	26024.9
792.751	26299.9
789.768	26169.9
786.783	26311.4
783.797	26299.5
780.809	26327.8
777.82	26471.5
774.829	26339.2
771.836	26545.3
768.842	26703.5
765.846	26796.6
762.849	26796.9
759.849	26659.7
756.849	26695.1
753.846	26892.8
750.842	26803.2
747.836	27003
744.829	27122.9
741.82	26589.7
738.809	26973.6
735.797	27088.2
732.783	26620.6
729.767	26824.8
726.75	26849.8
723.731	26989.1
720.71	27123.2
717.688	27066.1
714.664	27393.5
711.638	27321.4
708.611	27559.1
705.582	27690
702.551	27308.6
699.519	27807.9
696.485	27740.7
693.449	27881.1
690.412	28055.9
687.373	29851.5
684.332	28293.8
681.29	28357.1
678.246	27900.5
675.2	28308.6
672.153	27813.2
669.104	28188.9
666.053	28038.2
663.001	28334.7
659.946	28147.2
656.891	28080.1
653.833	28378.6
650.774	28350.7
647.713	27947.9
644.651	28250.8
641.586	28450.6
638.521	28618.3
635.453	28629.4
632.384	28945.8
629.313	28922.5
626.24	29031
623.166	29027.1
620.089	28933
617.012	28943.8
613.932	29054.4
610.851	29018.9
607.768	29260.6
604.683	29108.3
601.597	29150.5
598.509	29241.2
595.419	29171.6
592.328	29085.1
589.235	29192.6
586.14	28994.7
583.043	29136
579.945	29175.5
576.845	28699.8
573.743	29467.1
570.639	28965.1
567.534	29062.5
564.427	29056
561.318	29216
558.208	29202.2
555.096	29508.8
551.982	29292.5
548.866	29317.1
545.749	29531.8
542.63	29404.7
539.509	29549.4
536.387	29842.7
533.262	29662.9
530.136	29562.4
527.009	30234
523.879	30372.9
520.748	30583.5
517.615	30686.1
514.48	29829.4
511.344	29717.2
508.205	29791.4
505.065	29679.2
501.924	29801.1
498.78	29524.5
495.635	29593.8
492.488	29591.6
489.339	29439.3
486.189	29810.9
483.036	29601.5
479.882	29713.4
476.726	29530.4
473.569	29891.5
470.409	29528.3
467.248	29905.5
464.085	30405.6
460.921	30298.6
457.754	30835.8
454.586	30759.3
451.416	30834.4
448.244	30550
445.071	30764.4
441.896	30888.9
438.718	31556
435.54	31684.6
432.359	31216.5
429.176	30713.6
425.992	30512.7
422.806	30184.9
419.618	30429.1
416.429	30256.8
413.237	30246.9
410.044	30267.5
406.849	30424.1
403.653	30902
400.454	31362.9
397.254	30408
394.051	30250.4
390.847	30708.5
387.642	31208.2
384.434	32200.5
381.225	32698.8
378.014	32442.2
374.801	31471.7
371.586	30943.2
368.369	31142.5
365.151	30933.9
361.93	30986.4
358.708	30640.7
355.485	30581.6
352.259	30824.7
349.031	31023.4
345.802	30871.2
342.571	30670.4
339.338	30975.5
336.103	30765.6
332.866	30611.6
329.628	30932.3
326.388	30655.7
323.145	30647.6
319.901	30507.8
316.656	30652.2
313.408	30584.1
310.158	30463
306.907	30083.6
303.654	30064.3
300.399	30337.5
297.142	30193.7
293.883	30195
290.623	29862.9
287.361	30055.1
284.096	29971.5
280.83	30230
277.562	30281.7
274.292	29993.9
271.021	30176.3
267.747	29705.6
264.472	29913.1
261.195	30326.3
257.916	30046.1
254.635	30310.1
251.352	29932
248.067	30200.3
244.781	30199.2
241.492	29969.9
238.202	29998.5
234.91	29878.9
231.616	29716.2
228.32	29881.3
225.022	30198.6
221.722	29563.2
218.421	30295.9
215.117	30063
211.812	30188.8
208.505	30010.6
205.196	29757.8
201.885	29725
198.572	30249
195.257	29326.9
191.94	29827.9
188.622	29851.6
185.301	29812
181.979	29709.2
178.655	30071.2
175.329	29941.3
172.001	30000.8
168.671	29790
165.339	29777.4
162.005	29935.9
158.67	29491.6
155.332	29638.8
151.993	29408.5
148.651	29553.2
145.308	29276.1
141.963	29907.2
138.616	29675
135.266	30284.9
131.915	29325.5
128.563	29760.4
125.208	29604.8
121.851	30094.9
118.492	30189.3
115.132	30156.3
111.769	29035.2
108.405	27262.2
105.038	24437.7
101.67	21745.6
100.547	20868.9