File: Spicy-Raman/model_train_and_validate/Raman_Data/cellulose/20180911 NBay_Control 4c_b1.txt
3201.2	231.617
3199.42	151.558
3197.64	168.321
3195.85	151.421
3194.07	222.824
3192.28	92.451
3190.5	197.419
3188.71	155.345
3186.93	176.257
3185.14	180.372
3183.35	163.519
3181.56	176.018
3179.77	138.237
3177.98	146.548
3176.19	125.556
3174.4	179.882
3172.6	171.437
3170.81	79.4104
3169.01	104.44
3167.22	171.204
3165.42	146.083
3163.62	129.329
3161.82	195.991
3160.03	150.052
3158.23	129.153
3156.42	162.409
3154.62	145.685
3152.82	174.743
3151.02	120.601
3149.21	133.016
3147.41	265.912
3145.6	141.201
3143.8	128.684
3141.99	186.714
3140.18	145.156
3138.37	99.4902
3136.56	153.311
3134.75	144.958
3132.94	215.268
3131.13	198.618
3129.32	144.76
3127.5	95.0845
3125.69	173.554
3123.87	148.692
3122.05	127.982
3120.24	148.557
3118.42	156.739
3116.6	90.702
3114.78	197.805
3112.96	243.024
3111.14	181.156
3109.32	193.419
3107.49	160.423
3105.67	185.019
3103.85	147.948
3102.02	221.821
3100.19	168.343
3098.37	180.578
3096.54	147.678
3094.71	127.109
3092.88	172.134
3091.05	196.634
3089.22	237.491
3087.39	98.2273
3085.55	126.819
3083.72	163.563
3081.88	257.493
3080.05	118.474
3078.21	171.505
3076.37	146.937
3074.54	212.145
3072.7	69.3235
3070.86	138.584
3069.02	118.15
3067.18	166.963
3065.33	122.112
3063.49	162.741
3061.65	195.2
3059.8	174.787
3057.96	174.707
3056.11	121.832
3054.26	117.717
3052.41	154.18
3050.56	158.164
3048.71	154.038
3046.86	230.952
3045.01	251.095
3043.16	174.067
3041.31	161.848
3039.45	153.685
3037.6	185.955
3035.74	121.219
3033.89	153.474
3032.03	117.071
3030.17	189.649
3028.31	92.7643
3026.45	157.224
3024.59	124.915
3022.73	144.996
3020.86	100.646
3019	217.295
3017.14	172.951
3015.27	205.034
3013.4	212.977
3011.54	168.696
3009.67	172.634
3007.8	164.528
3005.93	148.409
3004.06	176.405
3002.19	188.346
3000.32	188.259
2998.44	140.128
2996.57	128.058
2994.7	199.999
2992.82	79.9627
2990.94	215.8
2989.07	223.689
2987.19	195.638
2985.31	207.52
2983.43	191.469
2981.55	207.329
2979.67	219.189
2977.78	219.088
2975.9	270.748
2974.02	206.947
2972.13	226.741
2970.25	278.326
2968.36	222.558
2966.47	226.428
2964.58	250.147
2962.69	230.187
2960.8	238.015
2958.91	257.73
2957.02	162.493
2955.13	213.917
2953.23	186.101
2951.34	241.424
2949.44	146.37
2947.55	209.568
2945.65	225.28
2943.75	193.572
2941.85	146.099
2939.95	161.819
2938.05	169.634
2936.15	193.214
2934.25	248.304
2932.34	220.612
2930.44	157.507
2928.53	177.114
2926.63	247.844
2924.72	145.492
2922.81	145.425
2920.9	243.572
2918.99	270.946
2917.08	239.421
2915.17	247.156
2913.26	211.75
2911.35	235.169
2909.43	219.389
2907.52	215.372
2905.6	180.046
2903.68	277.768
2901.77	285.46
2899.85	195.43
2897.93	152.364
2896.01	246.013
2894.09	277.124
2892.17	195.067
2890.24	140.383
2888.32	218.272
2886.39	245.442
2884.47	233.646
2882.54	167.369
2880.61	221.758
2878.69	186.657
2876.76	155.475
2874.83	213.679
2872.89	151.447
2870.96	221.243
2869.03	186.223
2867.1	197.77
2865.16	306.207
2863.23	526.896
2861.29	120.045
2859.35	228.367
2857.41	197.31
2855.47	189.485
2853.53	154.609
2851.59	146.81
2849.65	162.189
2847.71	223.87
2845.77	208.334
2843.82	254.512
2841.88	165.741
2839.93	211.895
2837.98	204.095
2836.03	153.962
2834.08	180.821
2832.13	173.046
2830.18	222.933
2828.23	195.936
2826.28	165.124
2824.32	207.268
2822.37	207.171
2820.41	168.727
2818.46	191.646
2816.5	118.765
2814.54	199.126
2812.58	187.55
2810.62	202.766
2808.66	198.847
2806.7	236.976
2804.74	183.38
2802.77	171.838
2800.81	164.124
2798.84	129.712
2796.88	148.717
2794.91	190.574
2792.94	205.724
2790.97	167.548
2789	201.725
2787.03	175
2785.06	231.957
2783.09	205.243
2781.11	186.152
2779.14	205.051
2777.16	201.159
2775.18	151.747
2773.21	193.387
2771.23	151.605
2769.25	147.746
2767.27	189.329
2765.29	132.468
2763.31	211.849
2761.32	143.688
2759.34	219.21
2757.35	215.329
2755.37	249.211
2753.38	196.256
2751.39	199.937
2749.4	233.778
2747.41	222.362
2745.42	184.587
2743.43	222.153
2741.44	176.886
2739.45	191.85
2737.45	233.12
2735.46	214.22
2733.46	176.554
2731.46	157.698
2729.46	165.129
2727.47	221.319
2725.47	213.717
2723.46	161.149
2721.46	206.024
2719.46	172.23
2717.46	187.118
2715.45	220.695
2713.45	228.069
2711.44	205.539
2709.43	183.031
2707.42	216.546
2705.41	208.981
2703.4	249.913
2701.39	249.795
2699.38	163.967
2697.37	201.138
2695.35	208.489
2693.34	122.802
2691.32	185.975
2689.3	215.63
2687.29	274.984
2685.27	196.855
2683.25	163.35
2681.23	204.091
2679.2	155.778
2677.18	181.655
2675.16	196.391
2673.13	266.669
2671.11	125.868
2669.08	166.511
2667.05	244.1
2665.03	214.411
2663	144.105
2660.97	169.89
2658.93	232.565
2656.9	158.66
2654.87	199.153
2652.83	151.137
2650.8	165.804
2648.76	198.87
2646.73	158.285
2644.69	242.834
2642.65	202.266
2640.61	165.412
2638.57	216.77
2636.53	238.702
2634.48	201.883
2632.44	179.774
2630.39	179.689
2628.35	194.265
2626.3	278.437
2624.25	259.995
2622.2	197.649
2620.15	190.239
2618.1	208.432
2616.05	244.883
2614	226.5
2611.95	222.741
2609.89	222.636
2607.84	153.217
2605.78	258.887
2603.72	284.276
2601.66	218.57
2599.6	182.055
2597.54	203.805
2595.48	156.419
2593.42	265.422
2591.36	214.417
2589.29	254.272
2587.23	152.491
2585.16	214.112
2583.09	145.091
2581.02	126.895
2578.95	228.301
2576.88	159.373
2574.81	188.26
2572.74	170.077
2570.67	220.633
2568.59	130.148
2566.52	180.675
2564.44	209.483
2562.36	198.553
2560.29	176.808
2558.21	212.79
2556.13	205.479
2554.05	219.794
2551.96	223.29
2549.88	197.986
2547.8	226.675
2545.71	190.604
2543.63	262.405
2541.54	150.901
2539.45	190.332
2537.36	254.851
2535.27	208.089
2533.18	218.747
2531.09	132.619
2528.99	232.869
2526.9	168.302
2524.81	250.542
2522.71	182.451
2520.61	196.666
2518.51	185.85
2516.41	271.497
2514.31	185.673
2512.21	182.015
2510.11	210.465
2508.01	263.847
2505.9	267.285
2503.8	203.039
2501.69	242.106
2499.59	256.225
2497.48	291.672
2495.37	191.985
2493.26	245.196
2491.15	220.216
2489.03	198.809
2486.92	312.265
2484.81	209.259
2482.69	248.155
2480.58	209.059
2478.46	216.042
2476.34	155.759
2474.22	258.294
2472.1	254.633
2469.98	187.348
2467.86	247.322
2465.73	176.574
2463.61	247.085
2461.48	236.382
2459.36	292.691
2457.23	186.809
2455.1	232.519
2452.97	253.535
2450.84	228.776
2448.71	239.219
2446.58	218.007
2444.44	221.417
2442.31	238.874
2440.17	231.737
2438.04	235.135
2435.9	256.069
2433.76	255.946
2431.62	196.247
2429.48	192.65
2427.34	318.595
2425.19	195.964
2423.05	199.367
2420.9	279.679
2418.76	244.601
2416.61	261.946
2414.46	272.293
2412.31	275.651
2410.16	209.254
2408.01	209.153
2405.86	236.926
2403.71	247.259
2401.55	219.293
2399.4	184.396
2397.24	226.036
2395.08	212.024
2392.93	288.353
2390.77	218.764
2388.61	236.013
2386.44	201.208
2384.28	256.589
2382.12	252.999
2379.95	228.629
2377.79	176.582
2375.62	256.093
2373.45	276.724
2371.28	338.823
2369.11	245.355
2366.94	286.685
2364.77	248.57
2362.6	234.647
2360.42	262.125
2358.25	258.551
2356.07	279.1
2353.89	261.745
2351.72	258.176
2349.54	261.491
2347.36	230.413
2345.17	209.678
2342.99	271.418
2340.81	264.419
2338.62	233.399
2336.44	339.637
2334.25	267.463
2332.06	246.769
2329.87	322.015
2327.68	229.41
2325.49	270.367
2323.3	263.394
2321.11	317.971
2318.91	300.729
2316.72	249.348
2314.52	228.742
2312.32	296.879
2310.12	266.038
2307.93	286.363
2305.72	272.594
2303.52	289.491
2301.32	285.946
2299.12	275.599
2296.91	221.052
2294.7	275.331
2292.5	224.235
2290.29	217.334
2288.08	319.054
2285.87	308.721
2283.66	230.58
2281.45	291.474
2279.23	233.743
2277.02	203.156
2274.8	233.515
2272.58	253.697
2270.37	304.288
2268.15	246.691
2265.93	202.661
2263.71	256.579
2261.48	273.326
2259.26	225.974
2257.04	256.203
2254.81	320.098
2252.58	262.689
2250.36	299.588
2248.13	319.629
2245.9	312.747
2243.67	302.511
2241.43	319.161
2239.2	251.846
2236.97	288.642
2234.73	288.501
2232.5	305.125
2230.26	301.625
2228.02	267.98
2225.78	304.678
2223.54	267.717
2221.3	324.449
2219.05	330.976
2216.81	390.962
2214.56	347.352
2212.32	297.107
2210.07	313.645
2207.82	283.476
2205.57	356.672
2203.32	253.213
2201.07	356.322
2198.82	282.921
2196.56	286.109
2194.31	262.692
2192.05	342.329
2189.8	269.078
2187.54	302.15
2185.28	255.54
2183.02	268.682
2180.75	308.336
2178.49	265.105
2176.23	288.16
2173.96	301.261
2171.7	320.966
2169.43	334.038
2167.16	320.651
2164.89	290.757
2162.62	330.243
2160.35	306.975
2158.08	336.516
2155.8	286.887
2153.53	296.634
2151.25	382.14
2148.97	283.171
2146.69	322.525
2144.41	328.945
2142.13	253.163
2139.85	299.045
2137.57	269.337
2135.28	315.165
2133	301.885
2130.71	268.939
2128.43	324.534
2126.14	347.309
2123.85	340.588
2121.56	369.88
2119.26	281.363
2116.97	362.975
2114.68	339.917
2112.38	346.283
2110.08	365.703
2107.79	332.886
2105.49	326.198
2103.19	309.735
2100.89	309.582
2098.58	302.915
2096.28	302.765
2093.98	403.487
2091.67	338.241
2089.36	318.57
2087.06	324.91
2084.75	373.462
2082.44	366.786
2080.13	340.65
2077.81	346.966
2075.5	359.759
2073.18	301.27
2070.87	395.019
2068.55	317.153
2066.23	384.924
2063.91	329.771
2061.59	326.377
2059.27	384.352
2056.95	393.846
2054.62	361.384
2052.3	377.33
2049.97	390.037
2047.65	396.287
2045.32	341.346
2042.99	386.238
2040.66	344.225
2038.32	421.225
2035.99	449.94
2033.66	385.472
2031.32	382.069
2028.98	375.461
2026.65	404.142
2024.31	429.588
2021.97	381.31
2019.63	374.715
2017.28	361.725
2014.94	419.136
2012.59	348.573
2010.25	357.989
2007.9	364.2
2005.55	351.246
2003.2	437.243
2000.85	370.036
1998.5	443.185
1996.15	366.481
1993.79	420.447
1991.44	359.749
1989.08	426.392
1986.72	397.555
1984.36	438.682
1982	400.336
1979.64	419.191
1977.28	444.374
1974.92	431.463
1972.55	453.444
1970.19	456.387
1967.82	408.642
1965.45	459.097
1963.08	471.527
1960.71	480.78
1958.34	490.024
1955.97	515.058
1953.59	451.635
1951.22	438.783
1948.84	463.804
1946.46	454.112
1944.08	482.252
1941.7	469.409
1939.32	538.449
1936.94	513.001
1934.55	525.327
1932.17	509.344
1929.78	471.378
1927.4	471.142
1925.01	546.251
1922.62	555.391
1920.23	545.704
1917.83	489.007
1915.44	576.488
1913.05	485.385
1910.65	519.571
1908.25	503.668
1905.85	584.713
1903.46	615.672
1901.05	496.663
1898.65	583.833
1896.25	561.696
1893.85	580.128
1891.44	564.249
1889.03	607.588
1886.63	551.226
1884.22	644.33
1881.81	572.45
1879.39	544.176
1876.98	534.578
1874.57	615.077
1872.15	670.655
1869.74	583.425
1867.32	620.353
1864.9	610.74
1862.48	647.616
1860.06	631.805
1857.64	662.442
1855.21	606.417
1852.79	618.481
1850.36	661.441
1847.93	645.661
1845.51	663.862
1843.08	666.614
1840.65	616.924
1838.21	625.862
1835.78	705.665
1833.34	689.91
1830.91	618.758
1828.47	707.674
1826.03	725.769
1823.59	746.919
1821.15	608.293
1818.71	690.893
1816.27	702.82
1813.82	592.034
1811.38	671.45
1808.93	674.175
1806.48	707.526
1804.03	685.739
1801.58	667.034
1799.13	712.57
1796.68	736.663
1794.22	714.904
1791.77	693.167
1789.31	705.024
1786.85	738.223
1784.39	740.898
1781.93	746.618
1779.47	737.102
1777.01	730.64
1774.54	730.269
1772.08	696.445
1769.61	762.966
1767.14	741.312
1764.67	825.961
1762.2	792.156
1759.73	779.62
1757.26	867.152
1754.78	745.494
1752.31	796.607
1749.83	796.203
1747.35	759.488
1744.87	828.661
1742.39	782.899
1739.91	743.225
1737.42	748.886
1734.94	848.105
1732.45	739.075
1729.97	780.911
1727.48	786.541
1724.99	834.333
1722.5	794.772
1720.01	767.287
1717.51	857.119
1715.02	799.57
1712.52	856.246
1710.03	765.725
1707.53	855.374
1705.03	767.945
1702.53	869.494
1700.02	851.07
1697.52	964.454
1695.02	826.253
1692.51	861.738
1690	879.242
1687.49	995.368
1684.98	994.86
1682.47	925.673
1679.96	978.922
1677.45	978.422
1674.93	974.94
1672.41	929.743
1669.9	950.117
1667.38	1068.71
1664.86	1074.11
1662.34	987.321
1659.81	974.927
1657.29	1016.02
1654.76	1018.47
1652.24	1026.85
1649.71	1159.81
1647.18	1034.7
1644.65	974.901
1642.12	992.172
1639.58	1101.19
1637.05	1005.95
1634.51	984.734
1631.98	1034.47
1629.44	954.183
1626.9	959.599
1624.36	979.765
1621.81	1035.3
1619.27	937.487
1616.73	1054.87
1614.18	954.196
1611.63	991.972
1609.08	973.811
1606.53	976.251
1603.98	958.116
1601.43	1016.37
1598.87	992.363
1596.32	962.509
1593.76	1011.87
1591.2	955.657
1588.65	949.305
1586.08	1016.17
1583.52	977.598
1580.96	944.916
1578.4	999.984
1575.83	1060.84
1573.26	963.904
1570.69	951.73
1568.12	1073.79
1565.55	1079.07
1562.98	1023.13
1560.41	984.731
1557.83	1062.85
1555.25	1056.48
1552.68	1087.93
1550.1	1055.39
1547.52	1043.22
1544.93	984.593
1542.35	1076.98
1539.77	1090.93
1537.18	1119.37
1534.59	1078.21
1532.01	1164.56
1529.42	1163.96
1526.82	992.616
1524.23	1130.94
1521.64	1075.43
1519.04	1086.43
1516.45	1134.96
1513.85	1154.58
1511.25	1139.56
1508.65	1121.67
1506.05	1141.26
1503.44	1111.87
1500.84	1085.38
1498.23	1263.22
1495.63	1196.42
1493.02	1178.55
1490.41	1157.83
1487.8	1119.9
1485.18	1142.28
1482.57	1133.08
1479.95	1100.96
1477.34	1137.64
1474.72	1197.2
1472.1	1159.36
1469.48	1227.43
1466.86	1158.16
1464.23	1226.15
1461.61	1139.82
1458.98	1236.3
1456.35	1218.54
1453.72	1163.71
1451.09	1200.17
1448.46	1176.75
1445.83	1235.94
1443.19	1206.83
1440.56	1226.12
1437.92	1228.33
1435.28	1190.74
1432.64	1266.81
1430	1251.96
1427.36	1259.82
1424.71	1310.21
1422.07	1267.01
1419.42	1371.17
1416.77	1223.22
1414.12	1231.07
1411.47	1292.66
1408.82	1297.64
1406.17	1361.95
1403.51	1366.89
1400.85	1326.66
1398.2	1362.64
1395.54	1398.59
1392.88	1347.13
1390.21	1473.18
1387.55	1635.7
1384.89	1525.11
1382.22	1535.56
1379.55	1630.33
1376.88	1640.72
1374.21	1656.71
1371.54	1709.16
1368.87	1643.75
1366.19	1710.18
1363.52	1628.02
1360.84	1655.18
1358.16	1553.54
1355.48	1561.12
1352.8	1613.43
1350.11	1514.77
1347.43	1636.88
1344.74	1577.4
1342.06	1512.39
1339.37	1609.21
1336.68	1457.84
1333.99	1632.6
1331.29	1612.25
1328.6	1497.3
1325.9	1507.64
1323.21	1548.55
1320.51	1517.17
1317.81	1524.71
1315.11	1540.56
1312.4	1542.53
1309.7	1519.53
1306.99	1418.96
1304.29	1517.94
1301.58	1550.36
1298.87	1704.5
1296.16	1758.92
1293.44	2001.24
1290.73	2124.5
1288.01	2402.27
1285.3	2472.76
1282.58	2333.54
1279.86	2142.09
1277.14	1771.74
1274.41	1646.87
1271.69	1535.91
1268.96	1317.76
1266.24	1267.57
1263.51	1280.65
1260.78	1222.29
1258.05	1221.65
1255.31	1138.69
1252.58	1140.83
1249.84	1066.22
1247.11	1098.53
1244.37	1040.45
1241.63	1050.85
1238.88	1088.59
1236.14	937.66
1233.4	1040.99
1230.65	994.016
1227.9	1069.91
1225.15	987.51
1222.4	1000.62
1219.65	880.189
1216.9	906.959
1214.14	1037.14
1211.39	1042.04
1208.63	1000.7
1205.87	986.576
1203.11	956.173
1200.35	980.102
1197.59	898.177
1194.82	957.367
1192.05	946.017
1189.29	896.749
1186.52	917.936
1183.75	966.163
1180.97	919.668
1178.2	1043.54
1175.43	997.051
1172.65	988.42
1169.87	1060.77
1167.09	990.068
1164.31	1105.48
1161.53	1156.1
1158.74	1112.39
1155.96	1157.56
1153.17	1132.73
1150.38	1132.13
1147.59	1161.09
1144.8	1053.02
1142.01	1098.11
1139.21	1188.76
1136.42	1131.8
1133.62	1147.28
1130.82	1168.11
1128.02	1162.13
1125.22	1223.07
1122.42	1174.27
1119.61	1125.52
1116.8	1124.92
1114	1062.9
1111.19	1048.98
1108.38	1133.79
1105.56	1074.53
1102.75	1084.61
1099.93	1089.36
1097.12	990.284
1094.3	952.506
1091.48	1045.07
1088.66	956.805
1085.84	1059.89
1083.01	995.607
1080.19	939.35
1077.36	991.891
1074.53	975.456
1071.7	900.755
1068.87	945.286
1066.03	1026.82
1063.2	928.405
1060.36	925.264
1057.52	990.824
1054.68	897.866
1051.84	865.713
1049	891.628
1046.16	838.42
1043.31	869.592
1040.46	882.294
1037.61	887.086
1034.76	841.885
1031.91	838.804
1029.06	846.238
1026.2	864.171
1023.35	861.081
1020.49	787.152
1017.63	852.29
1014.77	833.485
1011.91	793.743
1009.04	877.099
1006.18	905.412
1003.31	813.387
1000.44	820.792
997.572	830.8
994.7	856.465
991.826	722.906
988.952	839.894
986.075	800.337
983.197	859.834
980.318	864.579
977.437	838.086
974.554	785.608
971.67	761.785
968.784	779.564
965.897	711.618
963.008	763.149
960.118	729.011
957.226	666.387
954.332	761.915
951.437	712.291
948.541	750.738
945.642	773.619
942.743	830.092
939.841	790.875
936.938	769.783
934.034	797.766
931.128	807.656
928.22	822.694
925.311	791.318
922.4	855.295
919.488	862.556
916.574	790.034
913.659	884.771
910.742	835.45
907.823	837.567
904.903	837.114
901.981	885.423
899.058	961.895
896.133	956.246
893.206	889.109
890.278	909.114
887.348	854.871
884.417	933.709
881.484	1030.36
878.549	1065.57
875.613	1136.51
872.676	1245.65
869.736	1318.96
866.795	1308.04
863.853	1350.65
860.909	1456.89
857.963	1588.48
855.016	1676.66
852.067	1645.23
849.117	1598.59
846.164	1531.68
843.211	1469.92
840.255	1408.22
837.298	1176.68
834.34	1132.96
831.38	1241.27
828.418	969.686
825.455	905.897
822.49	839.648
819.523	912.493
816.555	803.364
813.585	772.627
810.614	784.824
807.64	749.085
804.666	776.405
801.689	765.904
798.711	689.944
795.732	732.351
792.751	729.436
789.768	771.774
786.783	708.539
783.797	763.397
780.809	732.863
777.82	757.546
774.829	1694.77
771.836	754.212
768.842	738.774
765.846	780.92
762.849	755.477
759.849	847.571
756.849	812.123
753.846	824.165
750.842	771.296
747.836	790.831
744.829	822.812
741.82	862.233
738.809	809.457
735.797	818.97
732.783	868.279
729.767	847.91
726.75	857.385
723.731	772.465
720.71	916.023
717.688	838.606
714.664	929.896
711.638	914.515
708.611	933.828
705.582	1032.34
702.551	997.133
699.519	971.855
696.485	1035.58
693.449	847.277
690.412	962.846
687.373	912.967
684.332	944.524
681.29	985.904
678.246	923.776
675.2	933.116
672.153	971.973
669.104	946.844
666.053	941.406
663.001	911.407
659.946	886.352
656.891	949.665
653.833	936.878
650.774	963.324
647.713	957.893
644.651	1035.72
641.586	988.648
638.521	1051.69
635.453	1080.45
632.384	1033.43
629.313	1076.81
626.24	1105.5
623.166	1092.69
620.089	1106.71
617.012	1091.48
613.932	1132.28
610.851	1051.34
607.768	1106.7
604.683	1096.36
601.597	1032.59
598.509	1100.01
595.419	939.219
592.328	1021.17
589.235	1061.81
586.14	1010.34
583.043	1002.52
579.945	1047.95
576.845	1025.6
573.743	1012.94
570.639	1075.2
567.534	1134.97
564.427	1054.7
561.318	1186.78
558.208	1149.96
555.096	1077.03
551.982	1107.74
548.866	1034.92
545.749	1113.73
542.63	1036.17
539.509	958.709
536.387	991.796
533.262	1032.05
530.136	993.09
527.009	951.781
523.879	912.913
520.748	996.221
517.615	1024.39
514.48	1009.46
511.344	939.569
508.205	948.603
505.065	964.79
501.924	945.158
498.78	985.183
495.635	936.951
492.488	931.663
489.339	957.338
486.189	966.324
483.036	963.405
479.882	960.49
476.726	1038.36
473.569	1063.91
470.409	1001.6
467.248	972.576
464.085	1073.98
460.921	1104.18
457.754	1072.78
454.586	1138.45
451.416	1161.46
448.244	1182.09
445.071	1150.71
441.896	1140.62
438.718	1026.69
435.54	1129.91
432.359	1148.13
429.176	1107.43
425.992	1252.82
422.806	1165.03
419.618	1129.09
416.429	1161.37
413.237	1165.42
410.044	1171.81
406.849	1208.7
403.653	1229.14
400.454	1378.48
397.254	1258.21
394.051	1297.32
390.847	1160.84
387.642	1171.89
384.434	1297.47
381.225	1189.26
378.014	1193.26
374.801	1194.92
371.586	1124.27
368.369	1214.56
365.151	1195.23
361.93	1278.39
358.708	1182.25
355.485	1218.8
352.259	1255.3
349.031	1240.66
345.802	1267.82
342.571	1195.16
339.338	1138.82
336.103	1261.04
332.866	1190.82
329.628	1250.35
326.388	1150.14
323.145	1251.25
319.901	1282.91
316.656	1226.74
313.408	1232.97
310.158	1340.73
306.907	1270.78
303.654	1270.06
300.399	1262.43
297.142	1303.16
293.883	1311.63
290.623	1333.88
287.361	1358.41
284.096	1311.7
280.83	1281.11
277.562	1317.09
274.292	1371.38
271.021	1366.02
267.747	1333.18
264.472	1442.31
261.195	1427.76
257.916	1486.41
254.635	1462.71
251.352	1541.83
248.067	1561.5
244.781	1615.37
241.492	1676.02
238.202	1729.76
234.91	1835.83
231.616	1805.19
228.32	1815.54
225.022	1805.41
221.722	1852.11
218.421	1860.14
215.117	1825.03
211.812	1869.36
208.505	1886.43
205.196	1937.48
201.885	1977.14
198.572	1903.58
195.257	1891.18
191.94	1910.45
188.622	1857.39
185.301	1826.97
181.979	1830.44
178.655	1739.17
175.329	1760.72
172.001	1847.59
168.671	1821.76
165.339	1829.72
162.005	1792.69
158.67	1926.54
155.332	1979.36
151.993	2110.71
148.651	2289.03
145.308	2272.02
141.963	2524.02
138.616	2645.79
135.266	2856.98
131.915	3014.23
128.563	3137.74
125.208	3256.64
121.851	3563.05
118.492	3875.8
115.132	4081.09
111.769	4272.76
108.405	4138.81
105.038	4056.25
101.67	3996.04
100.547	3881.76