File: Spicy-Raman/model_train_and_validate/Raman_Data/cellulose/NBay_Control 1_2.txt
3201.17	46.323
3199.39	42.0991
3197.61	42.0801
3195.82	29.4427
3194.04	29.4293
3192.25	21.0114
3190.47	16.8015
3188.68	29.3893
3186.9	20.9829
3185.11	54.5307
3183.32	41.9277
3181.53	12.5726
3179.74	29.3227
3177.95	33.4965
3176.16	54.4071
3174.37	16.7331
3172.57	41.8136
3170.78	25.0768
3168.98	25.0654
3167.19	33.4054
3165.39	54.2591
3163.59	0
3161.79	25.0199
3159.99	41.6809
3158.2	29.1633
3156.39	37.4787
3154.59	37.4616
3152.79	16.6421
3150.99	66.5379
3149.18	45.724
3147.38	12.4645
3145.57	24.9177
3143.77	33.2085
3141.96	24.895
3140.15	41.4728
3138.34	29.0178
3136.53	70.4396
3134.72	57.9827
3132.91	49.6768
3131.1	45.5163
3129.28	41.3596
3127.47	82.6816
3125.66	49.5863
3123.84	33.0425
3122.02	16.5137
3120.21	49.5186
3118.39	28.8727
3116.57	57.719
3114.75	41.2091
3112.93	28.8332
3111.11	65.8743
3109.29	28.8069
3107.46	49.3607
3105.64	57.5612
3103.81	73.9735
3101.99	32.8621
3100.16	41.0588
3098.34	12.312
3096.51	45.1235
3094.68	28.7018
3092.85	8.19678
3091.02	57.3512
3089.19	49.1357
3087.35	57.2988
3085.52	28.6363
3083.69	53.1574
3081.85	69.4818
3080.02	36.7676
3078.18	44.9177
3076.34	69.3865
3074.51	44.8766
3072.67	36.7004
3070.83	36.6836
3068.99	32.5927
3067.14	52.9389
3065.3	56.9851
3063.46	28.4795
3061.62	77.2661
3059.77	77.2307
3057.92	36.5662
3056.08	28.4273
3054.23	36.5327
3052.38	56.8026
3050.53	12.1664
3048.68	48.6433
3046.83	36.4658
3044.98	76.948
3043.13	52.6245
3041.28	44.508
3039.42	52.5762
3037.57	48.5096
3035.71	72.731
3033.85	28.2713
3032	40.369
3030.14	36.3155
3028.28	28.2324
3026.42	28.2194
3024.56	24.177
3022.7	56.387
3020.83	56.3611
3018.97	68.407
3017.1	48.2651
3015.24	8.04049
3013.37	36.1656
3011.51	64.2648
3009.64	36.1323
3007.77	56.18
3005.9	52.1431
3004.03	44.1008
3002.16	40.0732
3000.29	60.0821
2998.41	44.04
2996.54	48.0215
2994.66	59.9992
2992.79	67.9678
2990.91	47.9552
2989.04	23.9665
2987.16	83.8443
2985.28	67.8427
2983.4	55.8447
2981.52	83.7284
2979.64	51.808
2977.75	71.7011
2975.87	71.668
2973.99	71.635
2972.1	47.7346
2970.21	63.6168
2968.33	83.4585
2966.44	75.4753
2964.55	47.6466
2962.66	59.5307
2960.77	63.4701
2958.88	63.4408
2956.99	43.5954
2955.09	55.4595
2953.2	67.3126
2951.31	102.901
2949.41	63.2945
2947.51	67.2193
2945.62	43.4747
2943.72	75.058
2941.82	82.9205
2939.92	74.9886
2938.02	55.2292
2936.12	47.3174
2934.21	82.7672
2932.31	82.7289
2930.41	63.0024
2928.5	82.6524
2926.59	55.0761
2924.69	78.6437
2922.78	43.234
2920.87	51.0711
2918.96	86.388
2917.05	113.822
2915.14	74.5387
2913.23	50.9765
2911.31	43.114
2909.4	101.859
2907.48	93.9797
2905.57	54.7961
2903.65	89.9804
2901.73	50.8349
2899.82	58.6284
2897.9	93.762
2895.98	105.433
2894.05	81.9656
2892.13	62.421
2890.21	74.0905
2888.29	89.6469
2886.36	77.9176
2884.43	112.928
2882.51	62.2762
2880.58	50.5759
2878.65	89.4389
2876.72	77.7368
2874.79	93.2408
2872.86	69.8981
2870.93	38.8142
2869	77.5924
2867.06	139.601
2865.13	81.3962
2863.19	216.956
2861.26	81.3205
2859.32	89.0239
2857.38	46.4256
2855.44	73.473
2853.5	54.1128
2851.56	81.1314
2849.62	104.263
2847.68	50.1774
2845.73	46.2961
2843.79	92.549
2841.84	88.6515
2839.9	61.6418
2837.95	84.718
2836	69.2824
2834.05	53.8612
2832.1	69.2178
2830.15	73.0292
2828.2	65.3114
2826.25	53.7608
2824.29	80.6036
2822.34	84.4024
2820.38	92.0324
2818.42	76.6579
2816.47	91.9465
2814.51	65.0983
2812.55	65.0679
2810.59	103.295
2808.63	99.4227
2806.67	91.7319
2804.7	64.9464
2802.74	53.4603
2800.78	76.3361
2798.81	99.1906
2796.84	95.331
2794.88	68.6062
2792.91	102.861
2790.94	91.3893
2788.97	91.3466
2787	95.1082
2785.03	57.0382
2783.05	79.8161
2781.08	94.9747
2779.1	83.5386
2777.13	79.704
2775.15	68.2857
2773.17	64.4618
2771.19	113.703
2769.22	71.9781
2767.24	60.5847
2765.25	94.6192
2763.27	83.2259
2761.29	71.8432
2759.3	90.7067
2757.32	79.3312
2755.33	105.725
2753.35	105.676
2751.36	90.5366
2749.37	90.4941
2747.38	75.3764
2745.39	52.7387
2743.4	82.8362
2741.41	124.196
2739.41	82.7583
2737.42	116.559
2735.42	93.9552
2733.43	105.18
2731.43	101.376
2729.43	93.8228
2727.43	116.286
2725.43	138.727
2723.43	112.429
2721.43	93.6464
2719.43	104.835
2717.42	67.362
2715.42	74.8114
2713.41	89.7314
2711.4	82.2151
2709.4	123.265
2707.39	89.6047
2705.38	70.9037
2703.37	108.17
2701.36	119.304
2699.35	93.1625
2697.33	96.8433
2695.32	96.7977
2693.3	130.243
2691.29	111.584
2689.27	115.249
2687.25	115.195
2685.23	107.712
2683.21	103.949
2681.19	92.7678
2679.17	133.523
2677.15	107.509
2675.12	125.986
2673.1	100
2671.07	129.569
2669.05	66.6038
2667.02	92.4616
2664.99	110.901
2662.96	92.3742
2660.93	118.183
2658.9	125.51
2656.87	81.1741
2654.83	103.264
2652.8	136.391
2650.76	121.588
2648.73	103.117
2646.69	114.111
2644.65	117.737
2642.61	77.2281
2640.57	113.949
2638.53	146.962
2636.49	110.169
2634.45	113.788
2632.4	121.071
2630.36	106.346
2628.31	153.945
2626.27	139.217
2624.22	128.166
2622.17	117.124
2620.12	146.336
2618.07	120.67
2616.02	113.303
2613.96	149.781
2611.91	91.2867
2609.86	91.2434
2607.8	116.736
2605.74	113.034
2603.69	72.8908
2601.63	138.427
2599.57	160.207
2597.51	149.213
2595.45	156.418
2593.38	141.8
2591.32	101.757
2589.26	145.297
2587.19	119.813
2585.12	137.901
2583.06	148.717
2580.99	141.396
2578.92	137.705
2576.85	141.261
2574.78	130.333
2572.71	112.178
2570.63	94.0396
2568.56	126.532
2566.48	144.539
2564.41	115.576
2562.33	151.621
2560.25	129.899
2558.17	122.624
2556.09	136.985
2554.01	129.713
2551.93	118.847
2549.85	151.188
2547.76	151.116
2545.68	107.888
2543.59	118.621
2541.5	143.714
2539.41	114.916
2537.33	143.577
2535.24	129.157
2533.14	168.542
2531.05	125.45
2528.96	139.72
2526.86	150.396
2524.77	157.482
2522.67	132.365
2520.58	164.483
2518.48	103.646
2516.38	117.886
2514.28	132.112
2512.18	182.013
2510.08	124.851
2507.97	139.054
2505.87	149.678
2503.76	160.293
2501.66	188.699
2499.55	177.933
2497.44	184.961
2495.33	110.213
2493.22	152.802
2491.11	159.833
2489	145.556
2486.89	145.486
2484.77	163.15
2482.66	198.522
2480.54	201.97
2478.42	141.666
2476.3	145.137
2474.18	141.53
2472.06	144.998
2469.94	201.486
2467.82	141.326
2465.7	169.51
2463.57	127.071
2461.45	158.763
2459.32	165.739
2457.19	158.61
2455.06	190.241
2452.93	158.458
2450.8	197.097
2448.67	193.485
2446.54	207.457
2444.41	189.784
2442.27	151.052
2440.14	154.49
2438	182.492
2435.86	164.865
2433.72	164.786
2431.58	168.211
2429.44	213.665
2427.3	140.041
2425.16	178.466
2423.01	171.384
2420.87	241.221
2418.72	185.196
2416.57	181.615
2414.43	146.618
2412.28	198.886
2410.13	149.964
2407.98	191.722
2405.82	205.566
2403.67	132.335
2401.52	167.079
2399.36	170.478
2397.2	187.783
2395.05	201.595
2392.89	180.653
2390.73	211.818
2388.57	204.774
2386.41	194.268
2384.24	187.239
2382.08	211.409
2379.92	190.522
2377.75	193.893
2375.58	214.563
2373.42	162.574
2371.25	248.929
2369.08	214.252
2366.91	193.424
2364.73	176.069
2362.56	182.885
2360.39	213.837
2358.21	241.312
2356.03	189.511
2353.86	210.083
2351.68	206.539
2349.5	237.405
2347.32	213.217
2345.14	195.927
2342.95	230.188
2340.77	188.869
2338.59	240.262
2336.4	198.978
2334.21	236.6
2332.03	229.631
2329.84	250.073
2327.65	229.408
2325.46	212.185
2323.26	225.764
2321.07	225.655
2318.88	235.797
2316.68	228.851
2314.48	215.084
2312.29	194.505
2310.09	167.125
2307.89	207.953
2305.69	190.814
2303.49	255.431
2301.28	228.074
2299.08	244.975
2296.87	227.852
2294.67	207.346
2292.46	210.643
2290.25	210.54
2288.04	264.744
2285.83	268.008
2283.62	220.406
2281.41	274.525
2279.19	254.066
2276.98	216.698
2274.76	233.513
2272.55	243.547
2270.33	246.81
2268.11	280.482
2265.89	209.415
2263.67	232.945
2261.45	236.205
2259.22	242.836
2257	246.088
2254.77	245.968
2252.55	225.641
2250.32	245.728
2248.09	232.15
2245.86	292.568
2243.63	242.007
2241.4	215.012
2239.16	282.065
2236.93	248.365
2234.69	322.045
2232.46	244.769
2230.22	251.352
2227.98	294.775
2225.74	257.802
2223.5	247.637
2221.26	287.653
2219.02	257.424
2216.77	243.932
2214.53	247.152
2212.28	270.399
2210.03	270.266
2207.78	236.784
2205.54	273.335
2203.28	256.542
2201.03	283.057
2198.78	309.546
2196.53	259.492
2194.27	269.34
2192.01	272.532
2189.76	242.501
2187.5	282.225
2185.24	288.724
2182.98	285.265
2180.72	295.072
2178.45	281.672
2176.19	251.724
2173.92	281.395
2171.66	324.272
2169.39	334.035
2167.12	320.648
2164.85	356.835
2162.58	297.216
2160.31	313.574
2158.04	310.12
2155.76	300.075
2153.49	306.519
2151.21	316.251
2148.93	299.632
2146.66	309.358
2144.38	328.942
2142.1	325.493
2139.81	308.901
2137.53	272.619
2135.25	275.767
2132.96	272.35
2130.67	318.132
2128.39	314.697
2126.1	301.436
2123.81	288.188
2121.52	327.325
2119.23	297.718
2116.93	304.112
2114.64	317.035
2112.34	300.545
2110.05	339.578
2107.75	329.62
2105.45	277.266
2103.15	299.951
2100.85	306.321
2098.55	351.769
2096.24	328.807
2093.94	357.929
2091.63	315.472
2089.33	334.821
2087.02	315.16
2084.71	340.984
2082.4	340.816
2080.09	330.914
2077.77	346.964
2075.46	353.274
2073.15	343.381
2070.83	323.784
2068.51	297.733
2066.19	329.932
2063.87	336.235
2061.55	316.68
2059.23	381.119
2056.91	329.279
2054.59	348.475
2052.26	351.527
2049.93	332.012
2047.61	389.84
2045.28	341.344
2042.95	379.798
2040.62	366.741
2038.29	353.697
2035.95	417.798
2033.62	337.285
2031.28	353.17
2028.95	362.622
2026.61	343.197
2024.27	349.438
2021.93	410.146
2019.59	333.078
2017.24	336.113
2014.9	387.138
2012.56	364.56
2010.21	428.304
2007.86	341.834
2005.51	367.209
2003.16	386.175
2000.81	315.804
1998.46	366.661
1996.11	366.478
1993.75	398.147
1991.4	372.48
1989.04	343.656
1986.68	432.537
1984.33	384.639
1981.96	355.852
1979.6	422.363
1977.24	365.019
1974.88	329.939
1972.51	361.484
1970.15	367.642
1967.78	446.652
1965.41	373.607
1963.04	354.433
1960.67	376.397
1958.3	417.308
1955.93	372.861
1953.55	432.682
1951.18	454.562
1948.8	403.853
1946.42	359.502
1944.04	406.601
1941.66	381.195
1939.28	421.939
1936.9	412.286
1934.51	402.643
1932.13	468.466
1929.74	414.809
1927.35	446.011
1924.97	420.673
1922.58	379.671
1920.19	429.66
1917.79	388.694
1915.4	457.427
1913.01	394.568
1910.61	422.539
1908.21	441.097
1905.81	428.369
1903.41	440.655
1901.01	431.063
1898.61	468.311
1896.21	433.751
1893.8	442.89
1891.4	448.902
1888.99	386.36
1886.58	467.136
1884.18	438.888
1881.77	410.667
1879.35	438.446
1876.94	416.47
1874.53	490.815
1872.11	475.044
1869.7	409.635
1867.28	452.854
1864.86	511.529
1862.44	433.806
1860.02	442.879
1857.6	464.324
1855.17	482.654
1852.75	488.596
1850.32	448.169
1847.89	500.461
1845.46	494.033
1843.04	450.578
1840.6	419.505
1838.17	465.539
1835.74	483.793
1833.3	523.588
1830.87	443.286
1828.43	486.138
1825.99	461.29
1823.55	504.089
1821.11	488.474
1818.67	460.591
1816.23	506.395
1813.78	463.194
1811.34	478.289
1808.89	481.112
1806.44	511.497
1803.99	498.994
1801.54	510.98
1799.09	492.372
1796.63	510.463
1794.18	482.709
1791.72	586.286
1789.27	515.793
1786.81	466.724
1784.35	503.075
1781.89	518.057
1779.43	523.886
1776.96	526.665
1774.5	477.714
1772.03	547.42
1769.57	604.896
1767.1	543.827
1764.63	604.283
1762.16	613.081
1759.69	527.832
1757.21	488.148
1754.74	548.509
1752.26	536.115
1749.79	547.952
1747.31	562.803
1744.83	520.177
1742.35	525.958
1739.87	483.394
1737.38	549.581
1734.9	552.32
1732.41	597.288
1729.93	569.849
1727.44	554.491
1724.95	581.317
1722.46	590.053
1719.96	532.583
1717.47	562.386
1714.98	565.105
1712.48	549.796
1709.98	570.535
1707.48	561.241
1704.98	584.953
1702.48	566.665
1699.98	524.423
1697.48	518.165
1694.97	637.647
1692.47	607.4
1689.96	529.335
1687.45	585.857
1684.94	567.633
1682.43	552.413
1679.92	534.224
1677.4	569.747
1674.89	626.103
1672.37	637.703
1669.85	539.09
1667.33	547.745
1664.81	606.972
1662.29	600.714
1659.77	624.186
1657.25	591.188
1654.72	614.64
1652.19	620.261
1649.67	605.112
1647.14	610.732
1644.61	660.793
1642.07	601.221
1639.54	621.635
1637.01	653.861
1634.47	615.084
1631.93	656.147
1629.39	614.453
1626.85	646.617
1624.31	687.6
1621.77	640.055
1619.23	666.259
1616.68	701.275
1614.14	653.795
1611.59	727.047
1609.04	632.53
1606.49	708.658
1603.94	722.989
1601.39	655.056
1598.83	722.246
1596.28	639.711
1593.72	683.376
1591.16	653.71
1588.6	665.094
1586.04	679.394
1583.48	720.021
1580.92	631.889
1578.35	646.183
1575.79	648.773
1573.22	674.727
1570.65	709.412
1568.08	668.197
1565.51	691.183
1562.94	650.019
1560.36	667.164
1557.79	666.821
1555.21	611.18
1552.63	666.133
1550.05	639.623
1547.47	735.187
1544.89	694.147
1542.31	685.08
1539.72	632.501
1537.14	675.673
1534.55	660.832
1531.96	631.522
1529.37	674.627
1526.78	671.385
1524.19	668.145
1521.59	673.582
1519	676.123
1516.4	698.877
1513.8	637.9
1511.21	634.686
1508.6	663.192
1506	691.668
1503.4	699.951
1500.79	659.283
1498.19	658.942
1495.58	727.625
1492.97	675.507
1490.36	666.538
1487.75	628.863
1485.14	711.768
1482.52	682.713
1479.91	702.429
1477.29	647.619
1474.67	727.477
1472.05	735.687
1469.43	743.889
1466.81	769.239
1464.19	754.549
1461.56	768.441
1458.94	659.545
1456.31	693.447
1453.68	713.052
1451.05	692.727
1448.42	769.296
1445.78	674.92
1443.15	751.419
1440.51	702.666
1437.88	716.518
1435.24	758.772
1432.6	761.218
1429.96	746.627
1427.31	692.328
1424.67	691.967
1422.02	702.945
1419.38	747.906
1416.73	761.674
1414.08	778.257
1411.43	755.223
1408.77	718.078
1406.12	827.902
1403.47	708.857
1400.81	835.506
1398.15	705.296
1395.49	792.339
1392.83	724.288
1390.17	737.993
1387.51	715.086
1384.84	759.733
1382.17	829.646
1379.51	756.129
1376.84	795.066
1374.17	727.259
1371.49	799.848
1368.82	799.429
1366.15	827.047
1363.47	764.968
1360.79	764.568
1358.11	722.181
1355.43	800.138
1352.75	785.738
1350.07	785.326
1347.38	824.021
1344.7	787.296
1342.01	878.965
1339.32	772.526
1336.63	811.146
1333.94	794.004
1331.25	835.356
1328.55	826.568
1325.86	773.284
1323.16	770.099
1320.46	775.252
1317.76	816.503
1315.06	777.214
1312.36	765.708
1309.65	815.217
1306.95	773.218
1304.24	825.441
1301.53	775.174
1298.82	755.398
1296.11	785.422
1293.4	746.311
1290.68	765.257
1287.97	775.899
1285.25	808.608
1282.53	827.49
1279.81	799.486
1277.09	721.914
1274.37	779.367
1271.64	806.481
1268.92	778.546
1266.19	772.636
1263.46	802.459
1260.73	716.888
1258	840.046
1255.27	787.471
1252.53	792.54
1249.8	781.158
1247.06	764.309
1244.32	722.836
1241.58	700.561
1238.84	749.424
1236.1	762.696
1233.35	762.293
1230.6	767.352
1227.86	745.112
1225.11	763.813
1222.36	826.118
1219.61	773.906
1216.85	754.431
1214.1	740.421
1211.34	704.66
1208.58	783.146
1205.83	701.197
1203.07	779.6
1200.3	719.459
1197.54	735.359
1194.77	753.953
1192.01	783.371
1189.24	701.68
1186.47	736.509
1183.7	660.341
1180.93	733.023
1178.15	797.516
1175.38	772.775
1172.6	712.952
1169.82	731.468
1167.04	774.243
1164.26	763.047
1161.48	746.472
1158.7	751.462
1155.91	780.675
1153.12	761.426
1150.34	766.399
1147.55	784.806
1144.75	754.839
1141.96	781.286
1139.17	754.036
1136.37	777.773
1133.57	769.317
1130.77	782.303
1127.97	773.854
1125.17	754.707
1122.37	775.704
1119.56	791.331
1116.76	766.862
1113.95	814.523
1111.14	774.051
1108.33	789.645
1105.52	778.558
1102.7	796.797
1099.89	807.026
1097.07	758.678
1094.25	763.595
1091.43	819.03
1088.61	738.859
1085.79	738.465
1082.96	722.14
1080.14	788.092
1077.31	726.673
1074.48	781.948
1071.65	733.844
1068.82	796.999
1065.99	730.412
1063.15	780.276
1060.31	740.205
1057.48	782.083
1054.64	736.772
1051.79	717.902
1048.95	746.534
1046.11	748.771
1043.26	743.099
1040.42	784.84
1037.57	729.141
1034.72	768.213
1031.86	741.507
1029.01	762.133
1026.16	722.325
1023.3	748.189
1020.44	760.907
1017.58	736.896
1014.72	726.016
1011.86	785.877
1008.99	774.982
1006.13	693.445
1003.26	774.149
1000.39	742.365
997.523	734.128
994.651	712.844
991.778	775.095
988.903	808.586
986.027	703.873
983.149	776.449
980.269	703.115
977.388	801.64
974.506	803.81
971.621	772.178
968.736	779.557
965.848	760.957
962.959	770.93
960.069	752.354
957.177	780.47
954.284	769.683
951.388	769.267
948.492	704.134
945.594	727.04
942.694	786.124
939.792	808.96
936.89	712.947
933.985	735.797
931.079	753.462
928.171	763.37
925.262	755.225
922.351	716.174
919.439	785.305
916.525	748.853
913.61	751.02
910.693	789.172
907.774	752.776
904.854	826.835
901.932	834.086
899.008	790.029
896.083	787.037
893.157	766.113
890.229	727.284
887.299	721.771
884.367	836.493
881.435	792.576
878.5	787.035
875.564	771.284
872.626	763.208
869.687	744.936
866.746	838.872
863.803	764.514
860.859	748.816
857.914	748.41
854.966	954.085
852.017	800.996
849.067	782.77
846.115	812.825
843.161	756.532
840.206	791.642
837.249	788.676
834.29	750.228
831.33	846.08
828.368	774.729
825.405	822.385
822.44	786.53
819.473	740.604
816.505	740.2
813.535	709.498
810.563	850.428
807.59	774.3
804.616	806.647
801.639	758.339
798.661	818.357
795.682	719.761
792.7	789.796
789.718	739.086
786.733	761.295
783.747	760.879
780.759	742.895
777.77	805.199
774.779	794.731
771.786	809.33
768.792	798.87
765.796	813.451
762.798	815.507
759.799	790.059
756.798	792.125
753.796	804.178
750.791	756.312
747.786	758.393
744.778	772.937
741.769	779.989
738.758	789.524
735.746	823.941
732.732	840.904
729.716	850.389
726.699	800.219
723.68	804.747
720.659	851.472
717.637	764.167
714.613	830.699
711.587	812.894
708.56	837.217
705.531	797.148
702.5	851.143
699.468	791.325
696.434	818.077
693.398	820.097
690.361	752.988
687.322	836.467
684.281	818.744
681.239	783.787
678.195	815.379
675.149	822.316
672.101	831.706
669.052	833.707
666.002	830.789
662.949	781.199
659.895	795.5
656.839	858.862
653.782	826.505
650.723	853.012
647.662	842.742
644.599	822.689
641.535	802.658
638.469	809.552
635.401	777.327
632.332	791.556
629.261	764.259
626.188	837.048
623.114	846.341
620.038	862.937
616.96	791.806
613.88	886.332
610.799	876.107
607.716	887.784
604.631	911.601
601.545	833.35
598.457	866.883
595.367	866.403
592.276	805.284
589.182	853.322
586.087	831.043
582.991	857.219
579.892	924.508
576.792	817.567
573.691	870.298
570.587	862.566
567.482	823.45
564.375	866.435
561.266	844.245
558.156	865.473
555.043	879.449
551.93	828.39
548.814	854.404
545.697	834.685
542.577	915.96
539.457	869.798
536.334	866.913
533.21	840.029
530.084	865.948
526.956	848.684
523.826	879.36
520.695	840.554
517.562	883.167
514.427	887.459
511.291	822.414
508.152	836.292
505.012	857.318
501.871	873.547
498.727	875.445
495.582	801.05
492.435	888.765
489.286	802.537
486.135	828.27
482.983	849.216
479.829	846.364
476.673	848.267
473.516	869.166
470.356	830.705
467.195	894.287
464.032	879.562
460.867	855.376
457.701	890.419
454.533	889.92
451.363	816.092
448.191	924.386
445.017	862.435
441.842	951.689
438.665	856.748
435.486	842.115
432.305	888.793
429.123	836.458
425.939	852.473
422.753	896.713
419.565	858.573
416.375	879.25
413.184	909.301
409.991	882.959
406.796	891.851
403.599	980.485
400.4	986.967
397.2	864.575
393.998	878.139
390.794	952.537
387.588	870.134
384.38	871.982
381.171	883.174
377.96	945.725
374.747	844.839
371.532	891.013
368.315	918.485
365.097	880.69
361.876	868.55
358.654	935.551
355.43	930.371
352.205	894.978
348.977	857.3
345.748	833.596
342.516	891.143
339.283	832.655
336.049	855.366
332.812	891.951
329.573	828.93
326.333	814.577
323.091	883.501
319.847	887.625
316.601	880.192
313.353	861.223
310.104	814.584
306.852	814.123
303.599	868.982
300.344	866.186
297.087	872.603
293.829	883.614
290.568	848.617
287.306	841.241
284.041	870.627
280.775	828.808
277.507	862.757
274.237	894.373
270.966	845.734
267.692	868.161
264.417	842.485
261.14	885.48
257.86	841.529
254.579	815.911
251.297	820.016
248.012	833.247
244.725	848.744
241.437	877.905
238.147	888.801
234.854	892.851
231.56	896.896
228.264	855.434
224.966	891.328
221.667	852.188
218.365	844.889
215.062	903.425
211.756	900.642
208.449	868.386
205.14	840.699
201.829	885.514
198.516	830.686
195.201	900.34
191.885	922.435
188.566	906.091
185.246	855.892
181.923	864.431
178.599	942.887
175.273	849.917
171.945	871.963
168.615	914.25
165.283	873.217
161.949	881.715
158.613	896.947
155.276	844.759
151.936	886.939
148.595	895.408
145.252	892.652
141.906	905.591
138.559	889.39
135.21	853.057
131.859	946.552
128.506	916.936
125.151	938.761
121.795	938.223
118.436	908.661
115.075	934.916
111.713	898.699
108.348	918.242
104.982	853.118
101.614	799.2
100.49	730.048