File: Spicy-Raman/model_train_and_validate/Raman_Data/cellulose/NBay_Control 1_1.txt
3201.17	29.4783
3199.39	92.6181
3197.61	42.0801
3195.82	54.6793
3194.04	67.2671
3192.25	67.2366
3190.47	42.0038
3188.68	25.1909
3186.9	41.9657
3185.11	50.336
3183.32	75.4698
3181.53	71.2447
3179.74	41.8896
3177.95	41.8706
3176.16	54.4071
3174.37	62.7489
3172.57	33.4509
3170.78	33.4357
3168.98	41.7757
3167.19	62.635
3165.39	58.4328
3163.59	33.375
3161.79	41.6998
3159.99	33.3447
3158.2	37.4957
3156.39	58.3002
3154.59	12.4872
3152.79	54.0867
3150.99	49.9034
3149.18	37.4106
3147.38	37.3935
3145.57	53.9883
3143.77	24.9064
3141.96	8.29834
3140.15	70.5038
3138.34	66.3263
3136.53	58.0091
3134.72	74.5492
3132.91	66.2357
3131.1	37.2406
3129.28	74.4473
3127.47	74.4134
3125.66	53.7185
3123.84	49.5637
3122.02	45.4127
3120.21	45.392
3118.39	57.7453
3116.57	8.24557
3114.75	45.33
3112.93	41.1903
3111.11	24.7029
3109.29	49.3832
3107.46	65.8142
3105.64	49.3382
3103.81	61.6445
3101.99	45.1854
3100.16	28.7412
3098.34	45.1441
3096.51	61.532
3094.68	69.7045
3092.85	106.558
3091.02	90.1234
3089.19	73.7036
3087.35	61.3916
3085.52	44.9999
3083.69	73.6026
3081.85	73.5689
3080.02	73.5353
3078.18	32.6674
3076.34	20.4078
3074.51	61.1954
3072.67	101.946
3070.83	52.9874
3068.99	81.4818
3067.14	44.7945
3065.3	52.9147
3063.46	97.644
3061.62	85.3993
3059.77	73.1659
3057.92	56.8808
3056.08	56.8547
3054.23	85.243
3052.38	60.8599
3050.53	48.6656
3048.68	93.233
3046.83	56.7245
3044.98	97.1974
3043.13	56.6725
3041.28	24.2771
3039.42	56.6205
3037.57	76.8069
3035.71	56.5686
3033.85	52.5039
3032	88.8119
3030.14	108.946
3028.28	52.4316
3026.42	72.5642
3024.56	40.2949
3022.7	60.4146
3020.83	60.3869
3018.97	68.407
3017.1	72.3977
3015.24	48.2429
3013.37	56.2576
3011.51	88.3641
3009.64	96.3529
3007.77	92.2957
3005.9	68.1872
3004.03	80.1833
3002.16	44.0805
3000.29	88.1205
2998.41	72.0654
2996.54	92.0412
2994.66	87.9989
2992.79	87.9583
2990.91	83.9216
2989.04	79.8885
2987.16	91.8294
2985.28	111.741
2983.4	67.8114
2981.52	87.7155
2979.64	71.7341
2977.75	79.6679
2975.87	59.7233
2973.99	95.5133
2972.1	87.5135
2970.21	91.4492
2968.33	95.3812
2966.44	59.5857
2964.55	99.2637
2962.66	83.343
2960.77	138.841
2958.88	95.1613
2956.99	107.007
2955.09	114.88
2953.2	67.3126
2951.31	91.0279
2949.41	94.9417
2947.51	71.1734
2945.62	114.615
2943.72	90.8597
2941.82	118.458
2939.92	86.8289
2938.02	67.0641
2936.12	94.6349
2934.21	110.356
2932.31	102.426
2930.41	114.192
2928.5	94.4599
2926.59	94.4162
2924.69	117.966
2922.78	98.2591
2920.87	109.999
2918.96	98.1681
2917.05	109.897
2915.14	98.0772
2913.23	105.874
2911.31	74.4696
2909.4	74.4351
2907.48	133.138
2905.57	133.076
2903.65	58.6829
2901.73	101.67
2899.82	101.623
2897.9	74.2282
2895.98	148.388
2894.05	117.094
2892.13	105.335
2890.21	128.684
2888.29	124.726
2886.36	144.148
2884.43	97.3518
2882.51	97.3066
2880.58	93.3709
2878.65	104.993
2876.72	101.058
2874.79	116.551
2872.86	143.679
2870.93	163.02
2869	131.907
2867.06	100.823
2865.13	127.908
2863.19	294.44
2861.26	104.555
2859.32	92.8945
2857.38	123.802
2855.44	139.212
2853.5	150.743
2851.56	104.312
2849.62	81.0936
2847.68	115.794
2845.73	154.32
2843.79	88.6928
2841.84	161.885
2839.9	127.136
2837.95	115.525
2836	103.924
2834.05	115.417
2832.1	111.518
2830.15	126.84
2828.2	126.781
2826.25	107.522
2824.29	72.927
2822.34	118.931
2820.38	134.214
2818.42	134.151
2816.47	130.258
2814.51	126.367
2812.55	118.653
2810.59	137.727
2808.63	133.838
2806.67	118.487
2804.7	110.791
2802.74	148.925
2800.78	148.855
2798.81	103.006
2796.84	125.837
2794.88	156.27
2792.91	125.719
2790.94	129.468
2788.97	117.989
2787	144.564
2785.03	117.879
2783.05	102.621
2781.08	110.171
2779.1	98.7274
2777.13	106.272
2775.15	110.016
2773.17	136.507
2771.19	136.443
2769.22	128.803
2767.24	140.102
2765.25	132.467
2763.27	147.537
2761.29	90.7493
2759.3	132.281
2757.32	154.885
2755.33	101.949
2753.35	147.191
2751.36	147.122
2749.37	150.824
2747.38	135.677
2745.39	128.08
2743.4	146.846
2741.41	101.615
2739.41	131.661
2737.42	157.919
2735.42	176.636
2733.43	146.501
2731.43	168.96
2729.43	112.587
2727.43	112.534
2725.43	191.219
2723.43	138.662
2721.43	153.58
2719.43	134.787
2717.42	149.693
2715.42	112.217
2713.41	142.075
2711.4	130.797
2709.4	130.735
2707.39	141.874
2705.38	100.758
2703.37	167.851
2701.36	141.674
2699.35	137.88
2697.33	171.338
2695.32	130.305
2693.3	126.522
2691.29	152.499
2689.27	152.427
2687.25	137.491
2685.23	159.711
2683.21	126.224
2681.19	196.668
2679.17	181.739
2677.15	159.41
2675.12	159.335
2673.1	170.371
2671.07	166.588
2669.05	177.61
2667.02	155.335
2664.99	158.959
2662.96	181.053
2660.93	162.502
2658.9	203.031
2656.87	184.487
2654.83	143.831
2652.8	129.018
2650.76	184.225
2648.73	176.772
2646.69	176.689
2644.65	180.284
2642.61	150.779
2640.57	205.844
2638.53	146.962
2636.49	201.977
2634.45	179.858
2632.4	150.422
2630.36	128.348
2628.31	153.945
2626.27	172.19
2624.22	183.094
2622.17	212.288
2620.12	208.529
2618.07	190.147
2616.02	211.986
2613.96	208.232
2611.91	193.528
2609.86	226.284
2607.8	196.992
2605.74	211.484
2603.69	156.715
2601.63	189.426
2599.57	160.207
2597.51	203.803
2595.45	167.33
2593.38	229.061
2591.32	207.147
2589.26	217.946
2587.19	185.166
2585.12	195.965
2583.06	203.126
2580.99	210.281
2578.92	184.814
2576.85	228.191
2574.78	188.258
2572.71	224.355
2570.63	238.716
2568.56	224.142
2566.48	213.194
2564.41	180.587
2562.33	202.161
2560.25	176.807
2558.17	205.575
2556.09	245.131
2554.01	226.998
2551.93	201.68
2549.85	219.582
2547.76	197.89
2545.68	219.373
2543.59	197.701
2541.5	208.385
2539.41	254.97
2537.33	193.829
2535.24	208.087
2533.14	243.847
2531.05	197.135
2528.96	218.537
2526.86	225.594
2524.77	250.54
2522.67	279.04
2520.58	221.695
2518.48	218.015
2516.38	239.344
2514.28	235.659
2512.18	221.271
2510.08	246.136
2507.97	231.756
2505.87	245.9
2503.76	270.717
2501.66	224.303
2499.55	238.43
2497.44	231.202
2495.33	238.202
2493.22	245.195
2491.11	237.973
2489	244.96
2486.89	212.906
2484.77	219.898
2482.66	283.603
2480.54	223.23
2478.42	269.164
2476.3	219.476
2474.18	237.062
2472.06	236.948
2469.94	254.509
2467.82	293.251
2465.7	264.859
2463.57	236.494
2461.45	257.549
2459.32	250.372
2457.19	239.678
2455.06	260.701
2452.93	246.49
2450.8	253.411
2448.67	246.253
2446.54	284.813
2444.41	274.133
2442.27	231.847
2440.14	270.358
2438	277.247
2435.86	263.082
2433.72	291.004
2431.58	269.838
2429.44	252.194
2427.3	308.089
2425.16	255.451
2423.01	276.314
2420.87	279.677
2418.72	290.025
2416.57	268.929
2414.43	324.654
2412.28	296.584
2410.13	352.242
2407.98	244.01
2405.82	275.25
2403.67	313.425
2401.52	288.908
2399.36	309.643
2397.2	347.746
2395.05	285.014
2392.89	326.565
2390.73	295.156
2388.57	270.718
2386.41	284.464
2384.24	298.196
2382.08	280.723
2379.92	332.548
2377.75	311.613
2375.58	356.451
2373.42	300.935
2371.25	349.192
2369.08	373.213
2366.91	341.946
2364.73	296.9
2362.56	327.813
2360.39	320.756
2358.21	327.495
2356.03	337.674
2353.86	361.618
2351.68	327.02
2349.5	319.98
2347.32	299.191
2345.14	329.982
2342.95	316.079
2340.77	346.832
2338.59	295.179
2336.4	325.912
2334.21	277.748
2332.03	363.296
2329.84	342.566
2327.65	352.672
2325.46	359.345
2323.26	335.226
2321.07	335.063
2318.88	358.822
2316.68	355.232
2314.48	331.161
2312.29	375.361
2310.09	382
2307.89	323.86
2305.69	364.592
2303.49	357.603
2301.28	411.895
2299.08	343.646
2296.87	360.482
2294.67	370.504
2292.46	394.106
2290.25	359.956
2288.04	414.088
2285.83	396.923
2283.62	372.994
2281.41	352.477
2279.19	382.793
2276.98	379.221
2274.76	365.499
2272.55	409.295
2270.33	385.429
2268.11	354.827
2265.89	435.718
2263.67	391.617
2261.45	428.544
2259.22	428.335
2257	387.673
2254.77	411.07
2252.55	414.237
2250.32	377.007
2248.09	339.814
2245.86	390.09
2243.63	399.983
2241.4	409.867
2239.16	382.803
2236.93	372.547
2234.69	409.266
2232.46	388.948
2230.22	402.163
2227.98	422.065
2225.74	411.814
2223.5	428.344
2221.26	404.721
2219.02	444.641
2216.77	414.35
2214.53	420.827
2212.28	437.312
2210.03	407.068
2207.78	433.548
2205.54	410.002
2203.28	416.465
2201.03	392.95
2198.78	422.714
2196.53	402.545
2194.27	392.372
2192.01	448.68
2189.76	405.275
2187.5	424.998
2185.24	474.57
2182.98	474.337
2180.72	470.788
2178.45	447.361
2176.19	443.829
2173.92	400.574
2171.66	499.644
2169.39	472.94
2167.12	459.485
2164.85	479.084
2162.58	439.219
2160.31	452.206
2158.04	438.787
2155.76	468.249
2153.49	477.907
2151.21	480.966
2148.93	490.607
2146.66	470.619
2144.38	473.677
2142.1	457.005
2139.81	463.352
2137.53	466.408
2135.25	416.934
2132.96	449.542
2130.67	465.719
2128.39	472.046
2126.1	458.707
2123.81	481.405
2121.52	504.08
2119.23	471.115
2116.93	480.693
2114.64	493.529
2112.34	473.685
2110.05	483.246
2107.75	505.853
2105.45	590.414
2103.15	564.039
2100.85	524.656
2098.55	478.797
2096.24	514.371
2093.94	471.816
2091.63	491.096
2089.33	507.107
2087.02	510.105
2084.71	474.131
2082.4	564.78
2080.09	483.394
2077.77	476.67
2075.46	538.014
2073.15	550.705
2070.83	527.767
2068.51	491.907
2066.19	540.183
2063.87	517.284
2061.55	542.879
2059.23	561.989
2056.91	510.059
2054.59	587.245
2052.26	532.128
2049.93	557.652
2047.61	596.037
2045.28	579.64
2042.95	621.195
2040.62	579.065
2038.29	527.33
2035.95	575.276
2033.62	539.656
2031.28	587.547
2028.95	513.447
2026.61	599.793
2024.27	564.231
2021.93	541.52
2019.59	586.089
2017.24	566.591
2014.9	591.905
2012.56	575.621
2010.21	578.531
2007.86	610.19
2005.51	600.307
2003.16	564.901
2000.81	567.81
1998.46	608.975
1996.11	627.793
1993.75	608.369
1991.4	573.046
1989.04	598.217
1986.68	601.099
1984.33	594.441
1981.96	568.727
1979.6	603.376
1977.24	596.726
1974.88	666.224
1972.51	643.695
1970.15	573.648
1967.78	620.878
1965.41	592.072
1963.04	651.904
1960.67	626.274
1958.3	635.446
1955.93	704.645
1953.55	694.818
1951.18	653.433
1948.8	624.711
1946.42	674.855
1944.04	617.782
1941.66	730.886
1939.28	676.991
1936.9	673.505
1934.51	619.692
1932.13	631.958
1929.74	637.927
1927.35	656.453
1924.97	706.353
1922.58	668.346
1920.19	646.058
1917.79	724.1
1915.4	670.475
1913.01	638.824
1910.61	701.102
1908.21	681.98
1905.81	722.286
1903.41	668.795
1901.01	687.201
1898.61	711.833
1896.21	667.789
1893.8	648.74
1891.4	735.7
1888.99	657.436
1886.58	725.619
1884.18	681.676
1881.77	721.778
1879.35	718.306
1876.94	752.133
1874.53	708.264
1872.11	754.481
1869.7	695.139
1867.28	728.908
1864.86	750.243
1862.44	746.766
1860.02	777.361
1857.6	795.542
1855.17	767.296
1852.75	838.034
1850.32	689.253
1847.89	772.316
1845.46	700.909
1843.04	765.365
1840.6	783.487
1838.17	736.846
1835.74	779.615
1833.3	773.062
1830.87	809.612
1828.43	695.361
1825.99	808.795
1823.55	851.419
1821.11	829.484
1818.67	767.652
1816.23	813.301
1813.78	861.97
1811.34	797.149
1808.89	787.553
1806.44	762.652
1803.99	838.799
1801.54	862.853
1799.09	782.903
1796.63	800.847
1794.18	785.166
1791.72	809.197
1789.27	766.059
1786.81	829.731
1784.35	823.213
1781.89	841.08
1779.43	819.333
1776.96	843.273
1774.5	803.289
1772.03	851.542
1769.57	857.189
1767.1	829.411
1764.63	914.015
1762.16	943.902
1759.69	837.25
1757.21	855.017
1754.74	872.766
1752.26	899.583
1749.79	871.88
1747.31	919.85
1744.83	867.97
1742.35	849.393
1739.87	903.343
1737.38	866.647
1734.9	890.352
1732.41	880.849
1729.93	946.733
1727.44	907.076
1724.95	852.398
1722.46	845.943
1719.96	908.7
1717.47	842.075
1714.98	865.693
1712.48	862.248
1709.98	879.826
1707.48	918.394
1704.98	908.927
1702.48	944.442
1699.98	902.007
1697.48	925.509
1694.97	937.011
1692.47	927.557
1689.96	968.952
1687.45	992.37
1684.94	935.1
1682.43	976.427
1679.92	1002.79
1677.4	963.499
1674.89	998.784
1672.37	959.535
1669.85	1006.7
1667.33	1018.09
1664.81	996.744
1662.29	1025.97
1659.77	995.725
1657.25	1010.07
1654.72	994.706
1652.19	1050.58
1649.67	1047.08
1647.14	1058.4
1644.61	1037.12
1642.07	1039.55
1639.54	1018.3
1637.01	949.726
1634.47	1005.43
1631.93	1049.24
1629.39	1036.89
1626.85	1089.51
1624.31	1077.14
1621.77	1106.09
1619.23	1055.4
1616.68	1022.45
1614.14	1107.33
1611.59	1097.93
1609.04	1103.25
1606.49	1164.43
1603.94	1160.9
1601.39	1174.99
1598.83	1168.51
1596.28	1129.76
1593.72	1105.72
1591.16	1113.95
1588.6	1151.46
1586.04	1086.44
1583.48	1167.84
1580.92	1073.63
1578.35	1116.93
1575.79	1098.82
1573.22	1045.68
1570.65	1065.58
1568.08	1152.57
1565.51	1073.23
1562.94	1090.17
1560.36	1075.04
1557.79	1036.63
1555.21	1129.23
1552.63	1041.38
1550.05	1067.01
1547.47	1046.12
1544.89	1071.72
1542.31	1082.77
1539.72	1088.02
1537.14	1064.26
1534.55	1118.78
1531.96	1100.82
1529.37	1091.56
1526.78	1122.83
1524.19	1099.11
1521.59	1156.36
1519	1149.99
1516.4	1103.19
1513.8	1091.07
1511.21	1122.24
1508.6	1113.01
1506	1129.72
1503.4	1077.29
1500.79	1076.73
1498.19	1058.91
1495.58	1136.01
1492.97	1109.56
1490.36	1152.08
1487.75	1119.89
1485.14	1245.59
1482.52	1095.78
1479.91	1152.56
1477.29	1194.94
1474.67	1168.55
1472.05	1208.02
1469.43	1241.72
1466.81	1169.59
1464.19	1171.84
1461.56	1179.8
1458.94	1182.04
1456.31	1232.79
1453.68	1160.85
1451.05	1168.8
1448.42	1193.83
1445.78	1216
1443.15	1175.52
1440.51	1209.04
1437.88	1214.1
1435.24	1168
1432.6	1244.08
1429.96	1220.72
1427.31	1265.48
1424.67	1236.47
1422.02	1207.48
1419.38	1223.85
1416.73	1177.91
1414.08	1143.33
1411.43	1210.62
1408.77	1218.47
1406.12	1226.31
1403.47	1270.86
1400.81	1315.36
1398.15	1261.07
1395.49	1243.49
1392.83	1279.48
1390.17	1304.16
1387.51	1306.3
1384.84	1356.26
1382.17	1229
1379.51	1264.9
1376.84	1272.67
1374.17	1249.54
1371.49	1260.11
1368.82	1298.72
1366.15	1320.47
1363.47	1269.34
1360.79	1375.1
1358.11	1326.8
1355.43	1303.72
1352.75	1308.63
1350.07	1335.89
1347.38	1418.99
1344.7	1314.95
1342.01	1294.73
1339.32	1377.72
1336.63	1377
1333.94	1426.42
1331.25	1292.02
1328.55	1308.04
1325.86	1343.51
1323.16	1309.45
1320.46	1333.77
1317.76	1385.83
1315.06	1210.23
1312.36	1237.34
1309.65	1386.42
1306.95	1299.78
1304.24	1321.26
1301.53	1273.5
1298.82	1259
1296.11	1230.68
1293.4	1324.01
1290.68	1356.47
1287.97	1364.04
1285.25	1332.96
1282.53	1340.53
1279.81	1276.42
1277.09	1322.59
1274.37	1360.45
1271.64	1304.68
1268.92	1331.51
1266.19	1267.56
1263.46	1277.89
1260.73	1268.97
1258	1265.56
1255.27	1292.33
1252.53	1286.16
1249.8	1219.7
1247.06	1290.29
1244.32	1237.58
1241.58	1187.67
1238.84	1222.6
1236.1	1243.82
1233.35	1267.76
1230.6	1313.51
1227.86	1260.96
1225.11	1265.75
1222.36	1243.27
1219.61	1335.26
1216.85	1225.61
1214.1	1246.74
1211.34	1262.4
1208.58	1226.38
1205.83	1236.61
1203.07	1287.56
1200.3	1270.59
1197.54	1231.93
1194.77	1223.14
1192.01	1173.7
1189.24	1265.19
1186.47	1248.27
1183.7	1207.02
1180.93	1228.02
1178.15	1157.07
1175.38	1194.29
1172.6	1212.56
1169.82	1268.6
1167.04	1262.53
1164.26	1253.77
1161.48	1207.29
1158.7	1314.39
1155.91	1251.77
1153.12	1280.7
1150.34	1269.26
1147.55	1263.21
1144.75	1230.31
1141.96	1280.66
1139.17	1282.67
1136.37	1287.35
1133.57	1289.34
1130.77	1237.75
1127.97	1239.77
1125.17	1247.14
1122.37	1278.57
1119.56	1326.01
1116.76	1352.03
1113.95	1297.9
1111.14	1281.19
1108.33	1267.17
1105.52	1306.49
1102.7	1263.15
1099.89	1337.05
1097.07	1275.11
1094.25	1335.63
1091.43	1297.68
1088.61	1193.34
1085.79	1229.89
1082.96	1279.68
1080.14	1233.88
1077.31	1283.61
1074.48	1235.21
1071.65	1186.87
1068.82	1183.58
1065.99	1291.45
1063.15	1240.51
1060.31	1250.42
1057.48	1286.74
1054.64	1272.85
1051.79	1224.66
1048.95	1334.79
1046.11	1218.07
1043.26	1270.12
1040.42	1277.34
1037.57	1234.54
1034.72	1247.03
1031.86	1251.62
1029.01	1201.02
1026.16	1174.11
1023.3	1257.48
1020.44	1264.68
1017.58	1274.49
1014.72	1271.18
1011.86	1301.94
1008.99	1220.07
1006.13	1240.35
1003.26	1179.53
1000.39	1239.02
997.523	1186.1
994.651	1224.63
991.778	1210.92
988.903	1205.05
986.027	1191.37
983.149	1253.26
980.269	1218.73
977.388	1220.68
974.506	1220.02
971.621	1281.76
968.736	1236.9
965.848	1160.91
962.959	1183.65
960.069	1234.9
957.177	1218.67
954.284	1212.83
951.388	1245.85
948.492	1302.13
945.594	1197.93
942.694	1176.6
939.792	1274.18
936.89	1224.41
933.985	1301.2
931.079	1176.64
928.171	1199.21
925.262	1219.19
922.351	1295.81
919.439	1295.11
916.525	1260.96
913.61	1244.84
910.693	1197.9
907.774	1261.48
904.854	1337.83
901.932	1293.48
899.008	1254.3
896.083	1310.02
893.157	1270.88
890.229	1300.92
887.299	1220.87
884.367	1284.16
881.435	1303.92
878.5	1303.21
875.564	1271.85
872.626	1312
869.687	1265.37
866.746	1308.03
863.803	1271.64
860.859	1337.17
857.914	1303.35
854.966	1445.12
852.017	1380.76
849.067	1296.15
846.115	1295.44
843.161	1282.04
840.206	1271.19
837.249	1222.32
834.29	1320.5
831.33	1352.71
828.368	1235.52
825.405	1219.66
822.44	1345.45
819.473	1225.91
816.505	1331.35
813.535	1300.32
810.563	1246.62
807.59	1261.07
804.616	1247.78
801.639	1322.68
798.661	1279.16
795.682	1286.01
792.7	1262.67
789.718	1244.38
786.733	1223.6
783.747	1295.76
780.759	1292.54
777.77	1299.36
774.779	1303.66
771.786	1280.4
768.792	1269.68
765.796	1321.54
762.798	1303.31
759.799	1292.6
756.798	1309.38
753.796	1248.72
750.791	1320.43
747.786	1344.65
744.778	1241.69
741.769	1280.88
738.758	1300.1
735.746	1281.96
732.732	1316.09
729.716	1332.77
726.699	1245.06
723.68	1336.28
720.659	1315.69
717.637	1287.67
714.613	1296.88
711.587	1358.13
708.56	1278.12
705.531	1413.58
702.5	1326.2
699.468	1340.31
696.434	1319.8
693.398	1314.13
690.361	1330.69
687.322	1366.97
684.281	1314.43
681.239	1318.64
678.195	1295.74
675.149	1324.57
672.101	1213.11
669.052	1315.73
666.002	1410.87
662.949	1370.78
659.895	1330.74
656.839	1398.72
653.782	1353.8
650.723	1362.86
647.662	1327.81
644.599	1339.32
641.535	1355.71
638.469	1291.37
635.401	1388.43
632.332	1336.36
629.261	1369.81
626.188	1349.53
623.114	1451.22
620.038	1411.41
616.96	1417.94
613.88	1319.76
610.799	1367.7
607.716	1364.51
604.631	1361.32
601.545	1401.87
598.457	1461.8
595.367	1320.23
592.276	1319.5
589.182	1389.07
586.087	1422.22
582.991	1428.7
579.892	1340.78
576.792	1407.76
573.691	1380.39
570.587	1340.96
567.482	1369.2
564.375	1344.3
561.266	1435.22
558.156	1333.17
555.043	1308.33
551.93	1394.3
548.814	1347.79
545.697	1371.1
542.577	1420.82
539.457	1357.56
536.334	1376.01
533.21	1413.65
530.084	1448.84
526.956	1495.98
523.826	1447.23
520.695	1408.11
517.562	1448.01
514.427	1353.91
511.291	1386.63
508.152	1388.24
505.012	1442.4
501.871	1396.24
498.727	1412.16
495.582	1342.24
492.435	1393.91
489.286	1366.93
486.135	1435.19
482.983	1396.33
479.829	1386.04
476.673	1423.28
473.516	1415.36
470.356	1454.92
467.195	1375.83
464.032	1384.54
460.867	1457.22
457.701	1451.67
454.533	1472.16
451.363	1459.5
448.191	1442.14
445.017	1389.35
441.842	1506.64
438.665	1442.07
435.486	1398.81
432.305	1464.03
429.123	1404.31
425.939	1377.62
422.753	1468.63
419.565	1401.94
416.375	1495.19
413.184	1454.41
409.991	1366.71
406.796	1450.43
403.599	1550.48
400.4	1622.28
397.2	1464.39
393.998	1463.56
390.794	1408.91
387.588	1457.24
384.38	1524.22
381.171	1436.91
377.96	1524.84
374.747	1456.3
371.532	1523.12
368.315	1438.34
365.097	1379.28
361.876	1448.36
358.654	1412.64
355.43	1507.2
352.205	1445.91
348.977	1428.83
345.748	1500.01
342.516	1448.11
339.283	1477.44
336.049	1476.61
332.812	1413.22
329.573	1470.31
326.333	1492.62
323.091	1454.77
319.847	1442.39
316.601	1446.2
313.353	1526.19
310.104	1453.79
306.852	1489.87
303.599	1445.23
300.344	1407.55
297.087	1420.57
293.829	1403.66
290.568	1418.96
287.306	1425.05
284.041	1449.51
280.775	1441.8
277.507	1418.04
274.237	1474.57
270.966	1409.56
267.692	1431.66
264.417	1549.9
261.14	1455.21
257.86	1445.23
254.579	1407.85
251.297	1423.04
248.012	1513.54
244.725	1432.83
241.437	1468.5
238.147	1438.03
234.854	1530.6
231.56	1495.58
228.264	1417.38
224.966	1430.22
221.667	1518.03
218.365	1537.61
215.062	1436.85
211.756	1506.36
208.449	1487.37
205.14	1484.25
201.829	1474.35
198.516	1450.87
195.201	1470.4
191.885	1471.83
188.566	1466.47
185.246	1427.24
181.923	1442.22
178.599	1484.26
175.273	1418.03
171.945	1448.77
168.615	1504.23
165.283	1447.11
161.949	1453.03
158.613	1463.44
155.276	1433.39
151.936	1481.97
148.595	1521.52
145.252	1619.33
141.906	1584.78
138.559	1465.14
135.21	1524.75
131.859	1512.69
128.506	1531.95
125.151	1580.25
121.795	1659.76
118.436	1634.25
115.075	1660.09
111.713	1650.22
108.348	1580.18
104.982	1438.94
101.614	1322.35
100.49	1317.65