File: Spicy-Raman/model_train_and_validate/Raman_Data/cellulose/NBay_Control 3_1.txt
3201.17	1195.98
3199.39	1220.87
3197.61	1190.87
3195.82	1345.95
3194.04	1320.12
3192.25	1302.71
3190.47	1306.32
3188.68	1309.92
3186.9	1326.12
3185.11	1208.06
3183.32	1194.94
3181.53	1307.55
3179.74	1306.96
3177.95	1289.62
3176.16	1314.14
3174.37	1309.36
3172.57	1312.95
3170.78	1387.58
3168.98	1315.93
3167.19	1298.63
3165.39	1410.74
3163.59	1347.52
3161.79	1242.65
3159.99	1300.44
3158.2	1354.01
3156.39	1336.74
3154.59	1319.48
3152.79	1422.9
3150.99	1372.34
3149.18	1413.29
3147.38	1416.8
3145.57	1453.53
3143.77	1457.02
3141.96	1344.33
3140.15	1322.98
3138.34	1508.92
3136.53	1504.09
3134.72	1412.29
3132.91	1465.47
3131.1	1539.28
3129.28	1501.35
3127.47	1558.55
3125.66	1533.04
3123.84	1586.04
3122.02	1539.9
3120.21	1502.06
3118.39	1501.38
3116.57	1649.11
3114.75	1541.22
3112.93	1594.06
3111.11	1622.16
3109.29	1609.07
3107.46	1620.68
3105.64	1582.93
3103.81	1606.87
3101.99	1745.8
3100.16	1786.06
3098.34	1653.92
3096.51	1702.39
3094.68	1718.01
3092.85	1827.88
3091.02	1732.83
3089.19	1777.08
3087.35	1817.19
3085.52	1759.09
3083.69	1844.15
3081.85	1847.4
3080.02	1862.89
3078.18	1911.04
3076.34	1771.4
3074.51	1892.98
3072.67	1957.36
3070.83	1976.84
3068.99	2012.6
3067.14	2048.33
3065.3	1974.13
3063.46	2066.8
3061.62	2053.65
3059.77	2162.46
3057.92	2088.34
3056.08	2107.68
3054.23	2017.42
3052.38	2166.61
3050.53	2218.34
3048.68	2160.57
3046.83	2179.84
3044.98	2154.54
3043.13	2189.99
3041.28	2193.03
3039.42	2353.8
3037.57	2275.91
3035.71	2278.91
3033.85	2229.39
3032	2337.37
3030.14	2227.35
3028.28	2294.89
3026.42	2217.24
3024.56	2429.78
3022.7	2271.59
3020.83	2262.5
3018.97	2370.1
3017.1	2429.34
3015.24	2327.72
3013.37	2407.02
3011.51	2297.47
3009.64	2529.26
3007.77	2451.86
3005.9	2430.67
3004.03	2465.64
3002.16	2344.28
3000.29	2623.59
2998.41	2662.42
2996.54	2649.19
2994.66	2655.97
2992.79	2530.8
2990.91	2645.53
2989.04	2708.22
2987.16	2627.12
2985.28	2749.62
2983.4	2772.29
2981.52	2739.12
2979.64	2737.85
2977.75	2796.34
2975.87	2791.07
2973.99	2777.84
2972.1	2744.74
2970.21	2775.28
2968.33	2881.31
2966.44	2848.2
2964.55	2942.18
2962.66	2920.98
2960.77	2820.45
2958.88	2874.66
2956.99	3004.12
2955.09	2935.39
2953.2	3084.5
2951.31	2996
2949.41	3030.22
2947.51	3179.08
2945.62	3161.8
2943.72	2994.42
2941.82	3036.47
2939.92	3137.68
2938.02	3140.18
2936.12	3182.1
2934.21	3141.21
2932.31	3254
2930.41	3205.25
2928.5	3239.19
2926.59	3253.42
2924.69	3189
2922.78	3423.35
2920.87	3461.05
2918.96	3514.42
2917.05	3395.04
2915.14	3436.63
2913.23	3435.03
2911.31	3551.02
2909.4	3541.54
2907.48	3395.02
2905.57	3596.97
2903.65	3603.13
2901.73	8153.13
2899.82	3795.21
2897.9	3562.95
2895.98	3643.31
2894.05	3707.97
2892.13	3639.92
2890.21	3657.73
2888.29	3652.14
2886.36	3627.07
2884.43	3761.67
2882.51	3767.71
2880.58	3789.3
2878.65	3880.87
2876.72	3867.41
2874.79	3881.15
2872.86	3883.23
2870.93	3931.88
2869	3933.93
2867.06	3982.52
2865.13	4027.18
2863.19	4184.14
2861.26	4054.41
2859.32	4098.97
2857.38	4158.96
2855.44	4106.76
2853.5	4124.17
2851.56	4242.01
2849.62	4185.98
2847.68	4203.33
2845.73	4216.8
2843.79	4191.7
2841.84	4355.48
2839.9	4110.74
2837.95	4266.71
2836	4480.26
2834.05	4412.77
2832.1	4376.11
2830.15	4327.94
2828.2	4395.08
2826.25	4531.27
2824.29	4283.5
2822.34	4381.25
2820.38	4467.41
2818.42	4457.65
2816.47	4635.63
2814.51	4618.15
2812.55	4742.3
2810.59	4690.35
2808.63	4714.93
2806.67	4666.86
2804.7	4683.78
2802.74	4754.15
2800.78	4812.99
2798.81	4772.59
2796.84	4861.88
2794.88	5053.99
2792.91	4880.19
2790.94	4858.87
2788.97	5039.29
2787	5063.56
2785.03	5019.36
2783.05	5024.61
2781.08	5090.64
2779.1	5141.42
2777.13	5309.8
2775.15	5292.14
2773.17	5191.07
2771.19	5313.72
2769.22	5227.88
2767.24	5297.38
2765.25	5192.7
2763.27	5473.99
2761.29	5369.33
2759.3	5635.16
2757.32	5379.41
2755.33	5694.06
2753.35	5449.84
2751.36	5590.64
2749.37	5629.49
2747.38	5657
2745.39	5609.14
2743.4	5598.97
2741.41	5728.06
2739.41	5541.05
2737.42	5918.2
2735.42	5787.64
2733.43	5957.72
2731.43	5677.07
2729.43	5873.31
2727.43	5799.27
2725.43	6066.5
2723.43	6078.64
2721.43	5985.88
2719.43	5994.29
2717.42	6047.61
2715.42	5932.55
2713.41	6150.34
2711.4	6300.67
2709.4	6178.17
2707.39	6231.26
2705.38	6261.91
2703.37	6285.07
2701.36	6360.41
2699.35	6454.3
2697.33	6298.54
2695.32	6388.65
2693.3	6370.75
2691.29	6550
2689.27	6468.84
2687.25	6473.22
2685.23	6496.16
2683.21	6678.72
2681.19	6701.55
2679.17	6668.71
2677.15	6862.04
2675.12	6599.42
2673.1	6548.16
2671.07	6759.78
2669.05	6911.99
2667.02	6794.08
2664.99	7012.67
2662.96	6979.8
2660.93	7042.97
2658.9	6855.07
2656.87	7290.91
2654.83	7099.37
2652.8	6893.27
2650.76	7122.13
2648.73	7137.18
2646.69	7108.03
2644.65	7159.86
2642.61	7296.21
2640.57	7358.92
2638.53	7116.63
2636.49	7285.85
2634.45	7370.5
2632.4	7601.81
2630.36	7543.2
2628.31	7583.61
2626.27	7481.1
2624.22	7678.95
2622.17	7466.69
2620.12	7836.3
2618.07	7733.86
2616.02	7551.1
2613.96	7755.74
2611.91	7711.9
2609.86	7810.43
2607.8	7777.54
2605.74	8050.96
2603.69	7926.87
2601.63	8043.32
2599.57	7995.81
2597.51	8123.02
2595.45	8082.79
2593.38	7940.78
2591.32	8329.5
2589.26	8405.45
2587.19	8230.81
2585.12	8306.74
2583.06	8324.55
2580.99	8150.19
2578.92	8291.26
2576.85	8327.16
2574.78	8366.64
2572.71	8576.16
2570.63	8166.98
2568.56	8571.61
2566.48	8264
2564.41	8664.58
2562.33	8620.74
2560.25	8468.69
2558.17	8691.87
2556.09	8968.9
2554.01	8726.82
2551.93	8855.91
2549.85	8783.3
2547.76	8991.39
2545.68	8843.25
2543.59	8817.46
2541.5	8906.67
2539.41	8949.1
2537.33	9257.11
2535.24	8987.2
2533.14	9180.14
2531.05	9172.17
2528.96	8995.83
2526.86	9023.76
2524.77	9219.88
2522.67	9337.1
2520.58	9507.85
2518.48	9156.63
2516.38	9413.03
2514.28	9137.16
2512.18	9386.18
2510.08	9595.72
2507.97	9776.53
2505.87	9693.45
2503.76	9713.75
2501.66	9620.09
2499.55	9782.74
2497.44	9475.72
2495.33	9808.93
2493.22	9782.91
2491.11	10023.3
2489	9748.68
2486.89	9793.69
2484.77	10136.6
2482.66	9929.65
2480.54	10151.7
2478.42	9870.54
2476.3	10088.8
2474.18	10038
2472.06	10482.3
2469.94	10304.1
2467.82	10239.1
2465.7	10393.1
2463.57	10377.5
2461.45	10513.6
2459.32	10416.9
2457.19	10433
2455.06	10396.3
2452.93	10239.9
2450.8	10572.9
2448.67	10701.5
2446.54	10379.9
2444.41	10866.9
2442.27	10679
2440.14	10610.7
2438	10542.4
2435.86	11007.4
2433.72	10858.3
2431.58	10954.7
2429.44	10952.9
2427.3	11094.7
2425.16	10956.4
2423.01	11147
2420.87	11264
2418.72	11234.1
2416.57	11186.8
2414.43	11366.4
2412.28	11301.6
2410.13	11306.6
2407.98	11534.7
2405.82	11062.3
2403.67	11548
2401.52	11385.7
2399.36	11404.6
2397.2	11423.4
2395.05	11619.5
2392.89	11568.8
2390.73	11511.1
2388.57	11838.7
2386.41	11801.8
2384.24	11473.6
2382.08	11627.5
2379.92	11569.9
2377.75	11727
2375.58	11911.7
2373.42	11854.1
2371.25	11952
2369.08	12001.6
2366.91	12116.6
2364.73	12207.4
2362.56	12011.7
2360.39	12199.1
2358.21	12375.9
2356.03	12173.5
2353.86	12264
2351.68	12203
2349.5	12204
2347.32	12270.3
2345.14	12415.6
2342.95	12443.9
2340.77	12698.9
2338.59	12449
2336.4	12686.5
2334.21	12831.3
2332.03	12633.1
2329.84	12743.5
2327.65	12679.1
2325.46	12707.1
2323.26	13022.5
2321.07	12872.6
2318.88	13064.5
2316.68	12815.7
2314.48	12966.5
2312.29	13055.7
2310.09	12960.7
2307.89	13162.4
2305.69	13125.3
2303.49	13370.9
2301.28	13344
2299.08	13051.7
2296.87	13405.9
2294.67	13287.2
2292.46	13477.8
2290.25	13257.3
2288.04	13518.9
2285.83	13539.5
2283.62	13519.3
2281.41	13631.4
2279.19	13296.1
2276.98	13611.3
2274.76	13658.8
2272.55	13767.2
2270.33	13794.3
2268.11	13841.6
2265.89	13652.5
2263.67	13811.3
2261.45	13696.5
2259.22	13581.9
2257	13936
2254.77	13777.6
2252.55	14131.2
2250.32	14094
2248.09	13807.9
2245.86	14295.5
2243.63	14238.1
2241.4	14063.1
2239.16	14204
2236.93	14257.5
2234.69	14287.4
2232.46	14478.2
2230.22	14474.5
2227.98	14433.9
2225.74	14467.1
2223.5	14533.6
2221.26	14559.9
2219.02	14529.4
2216.77	14649.3
2214.53	14612
2212.28	14828.5
2210.03	14911.4
2207.78	14660.6
2205.54	14720.1
2203.28	14792.8
2201.03	14705.7
2198.78	14968.1
2196.53	14994
2194.27	15159.5
2192.01	14743.3
2189.76	15021.8
2187.5	15017.7
2185.24	15471.6
2182.98	15122.4
2180.72	15221.1
2178.45	15147.3
2176.19	15404.8
2173.92	15632.3
2171.66	15710.7
2169.39	15233.3
2167.12	15397.7
2164.85	15776.7
2162.58	15663.3
2160.31	15609.4
2158.04	15680.9
2155.76	15534.7
2153.49	15747.8
2151.21	15944.3
2148.93	15959.5
2146.66	15718
2144.38	15838.6
2142.1	16057.6
2139.81	16125.3
2137.53	15848
2135.25	16030.6
2132.96	15720.8
2130.67	16175.5
2128.39	16285.6
2126.1	16392.2
2123.81	16154.9
2121.52	16101.1
2119.23	16103
2116.93	16153.9
2114.64	16387.8
2112.34	16353.6
2110.05	16753.6
2107.75	16575.6
2105.45	16479.4
2103.15	16761.4
2100.85	16762.9
2098.55	16699.3
2096.24	16762.6
2093.94	16666.5
2091.63	16700.5
2089.33	16773.5
2087.02	16732.7
2084.71	16821.9
2082.4	16745.4
2080.09	16727.4
2077.77	17020.7
2075.46	17174.3
2073.15	16968.2
2070.83	17199.4
2068.51	17288
2066.19	16994.7
2063.87	17135
2061.55	17443.2
2059.23	17224.6
2056.91	17258.1
2054.59	17194.7
2052.26	17563.5
2049.93	17574.1
2047.61	17401.1
2045.28	17801.4
2042.95	17618.7
2040.62	17712.9
2038.29	17604.5
2035.95	17467.2
2033.62	17509.9
2031.28	17546.2
2028.95	17704.3
2026.61	17730.8
2024.27	17811.7
2021.93	17841.3
2019.59	17768.4
2017.24	18118.1
2014.9	18163.5
2012.56	18087.3
2010.21	18282.8
2007.86	18350.4
2005.51	18188
2003.16	18405.6
2000.81	18441.1
1998.46	18626.4
1996.11	18738.2
1993.75	18302
1991.4	18334.3
1989.04	18907.5
1986.68	18707.2
1984.33	18631.1
1981.96	18561.5
1979.6	18707.8
1977.24	18701.7
1974.88	18977.9
1972.51	19088.9
1970.15	19126.9
1967.78	18914.6
1965.41	19117.3
1963.04	18974.8
1960.67	19177.3
1958.3	19208.8
1955.93	19382.5
1953.55	19180.1
1951.18	19328.4
1948.8	19684.7
1946.42	19230.2
1944.04	19428.6
1941.66	19478.8
1939.28	19292.7
1936.9	19670.1
1934.51	19543.9
1932.13	19386.3
1929.74	19810.3
1927.35	19410.9
1924.97	19862.7
1922.58	19476.2
1920.19	19783.2
1917.79	19716.8
1915.4	19779
1913.01	19897.5
1910.61	19972
1908.21	19827.5
1905.81	19851.9
1903.41	20263.9
1901.01	20397.4
1898.61	20059.3
1896.21	20539.2
1893.8	20248.2
1891.4	20163.2
1888.99	20766.9
1886.58	20709.7
1884.18	20680.6
1881.77	20520.9
1879.35	20177.9
1876.94	20826.6
1874.53	20257
1872.11	20681.5
1869.7	20820
1867.28	20880.9
1864.86	20675.1
1862.44	21076.8
1860.02	21056.9
1857.6	20925.6
1855.17	21041.9
1852.75	20814.8
1850.32	21444.1
1847.89	21328.3
1845.46	21311.3
1843.04	21263.6
1840.6	20935.1
1838.17	21519.6
1835.74	21379.3
1833.3	21205.3
1830.87	21739.5
1828.43	21611.6
1825.99	21865.1
1823.55	21426.9
1821.11	21621.9
1818.67	21675.4
1816.23	22032.8
1813.78	21776.2
1811.34	21691.7
1808.89	21824.7
1806.44	22000.5
1803.99	22289.4
1801.54	22054.8
1799.09	21979.4
1796.63	21849.1
1794.18	22226
1791.72	22019.3
1789.27	22475.1
1786.81	22250.2
1784.35	22306
1781.89	22264.3
1779.43	22469.2
1776.96	22524.8
1774.5	22525.6
1772.03	22550.6
1769.57	22636.5
1767.1	22603.7
1764.63	22668.2
1762.16	22899.5
1759.69	22784.7
1757.21	22979.3
1754.74	22931.3
1752.26	22756.1
1749.79	23053.4
1747.31	22887.3
1744.83	23114.6
1742.35	23024.3
1739.87	23239.2
1737.38	23487.1
1734.9	23218.6
1732.41	23369.7
1729.93	23550.7
1727.44	23382.1
1724.95	23707.5
1722.46	23346.2
1719.96	23626.2
1717.47	23319.5
1714.98	23893.7
1712.48	23746.4
1709.98	23950.5
1707.48	24061.3
1704.98	23680.1
1702.48	24060.8
1699.98	24126.4
1697.48	24581.4
1694.97	23943.2
1692.47	24325.9
1689.96	24199.9
1687.45	24399.8
1684.94	24689
1682.43	24589.8
1679.92	24690.7
1677.4	24573.7
1674.89	25199.2
1672.37	25204.2
1669.85	25146.6
1667.33	25208.2
1664.81	25460.1
1662.29	25786.1
1659.77	25431.1
1657.25	25878.6
1654.72	25901
1652.19	26086.6
1649.67	26191.9
1647.14	26614.3
1644.61	26639.2
1642.07	26835.8
1639.54	26777.7
1637.01	27098.3
1634.47	27078.5
1631.93	27236
1629.39	27715.4
1626.85	28043.7
1624.31	27858.1
1621.77	28014.9
1619.23	28153.9
1616.68	28991
1614.14	28767
1611.59	29220.2
1609.04	28899.3
1606.49	28999.1
1603.94	29231.1
1601.39	29724.3
1598.83	29300.9
1596.28	29532.3
1593.72	29869.1
1591.16	29891.9
1588.6	29847.2
1586.04	29600.5
1583.48	30036
1580.92	29690
1578.35	30259.5
1575.79	30167.9
1573.22	30213.7
1570.65	30455.1
1568.08	29911.3
1565.51	30438.3
1562.94	30294.4
1560.36	30095.2
1557.79	30315.6
1555.21	30230.1
1552.63	29952.7
1550.05	30143.7
1547.47	30221.1
1544.89	30368.2
1542.31	29983.9
1539.72	30081.5
1537.14	30448.8
1534.55	29734.6
1531.96	30232
1529.37	30074.5
1526.78	30058.9
1524.19	30297.9
1521.59	29952.7
1519	30162.6
1516.4	30210.5
1513.8	30261.3
1511.21	29853.3
1508.6	30149.3
1506	30176.9
1503.4	30455.1
1500.79	30145.7
1498.19	30311.3
1495.58	30379
1492.97	30435.2
1490.36	30939.4
1487.75	30547.2
1485.14	30571.6
1482.52	30561.5
1479.91	30559.9
1477.29	30366.4
1474.67	30442.3
1472.05	30495.2
1469.43	30822.8
1466.81	30678.1
1464.19	31228.1
1461.56	30717.6
1458.94	31275.6
1456.31	31105.2
1453.68	31043.4
1451.05	31132.8
1448.42	31299
1445.78	31040.6
1443.15	31098.5
1440.51	31457.8
1437.88	31367.5
1435.24	31194.9
1432.6	31681.4
1429.96	31347
1427.31	31807.4
1424.67	31668.9
1422.02	31709
1419.38	32123.1
1416.73	32174.4
1414.08	32095.3
1411.43	32514.2
1408.77	32418.1
1406.12	32307.9
1403.47	32542.4
1400.81	32528.3
1398.15	32897.8
1395.49	32855.3
1392.83	32711.3
1390.17	32928
1387.51	32953.1
1384.84	33124.4
1382.17	33346.1
1379.51	33429.9
1376.84	33898.5
1374.17	33788.1
1371.49	34171.7
1368.82	34089.4
1366.15	34393.9
1363.47	34465.6
1360.79	34386
1358.11	34572.3
1355.43	34766.8
1352.75	35109.3
1350.07	34900.9
1347.38	35296
1344.7	35216.1
1342.01	35231.2
1339.32	35268.5
1336.63	35169.2
1333.94	35546.3
1331.25	35402.4
1328.55	35548
1325.86	35345.8
1323.16	35491.3
1320.46	35294.8
1317.76	35362.4
1315.06	35790.7
1312.36	35106.1
1309.65	35403.7
1306.95	35504.3
1304.24	34679.6
1301.53	35483.6
1298.82	35179.9
1296.11	35263.8
1293.4	34554.2
1290.68	34820.6
1287.97	35006.6
1285.25	34861.2
1282.53	34776.7
1279.81	34656.4
1277.09	34712.5
1274.37	34655.7
1271.64	34444.7
1268.92	34619.2
1266.19	34449.7
1263.46	34437
1260.73	34509.5
1258	34258
1255.27	34075.3
1252.53	34394.6
1249.8	33992.7
1247.06	34311.7
1244.32	34143
1241.58	33944.4
1238.84	34096
1236.1	33629.7
1233.35	33379.7
1230.6	33373
1227.86	33669.2
1225.11	33656.9
1222.36	33265.6
1219.61	33130.8
1216.85	33129.6
1214.1	32820.8
1211.34	33080.9
1208.58	32821.4
1205.83	32695.3
1203.07	32640
1200.3	32658
1197.54	32344.9
1194.77	32230.2
1192.01	32457
1189.24	32485.9
1186.47	32322.4
1183.7	32191.6
1180.93	32033.9
1178.15	32057.5
1175.38	31913.5
1172.6	32104.5
1169.82	32192.7
1167.04	32213.4
1164.26	32325.7
1161.48	31925.8
1158.7	32156.7
1155.91	32096.5
1153.12	32203.2
1150.34	31844.6
1147.55	31911
1144.75	31679.1
1141.96	31635.4
1139.17	31768.8
1136.37	31955.7
1133.57	31480.4
1130.77	31825.3
1127.97	31524.5
1125.17	31451.5
1122.37	31836
1119.56	31426
1116.76	31102
1113.95	31101.4
1111.14	31442.5
1108.33	30961.6
1105.52	31505
1102.7	31306.9
1099.89	31314.2
1097.07	30773.1
1094.25	30961.5
1091.43	30990.2
1088.61	30846
1085.79	30888
1082.96	30929.9
1080.14	30595
1077.31	31225.7
1074.48	30806.1
1071.65	30540.6
1068.82	30722.9
1065.99	30807
1063.15	30740.2
1060.31	30808.4
1057.48	30865.9
1054.64	30617
1051.79	30925.2
1048.95	30774.1
1046.11	30786.6
1043.26	30561.9
1040.42	30521.8
1037.57	30795
1034.72	31004.8
1031.86	30512.2
1029.01	30603.6
1026.16	30306.1
1023.3	29972.2
1020.44	30045.3
1017.58	30010.8
1014.72	30332.8
1011.86	30007.4
1008.99	29986
1006.13	30038
1003.26	29990.4
1000.39	30003.1
997.523	29665.6
994.651	29759.3
991.778	30153
988.903	29907.2
986.027	29768.6
983.149	29757.8
980.269	29517.8
977.388	29559.2
974.506	29696.7
971.621	29714.5
968.736	30062.3
965.848	30217.5
962.959	29876.8
960.069	29969.6
957.177	29982
954.284	29859.5
951.388	29758
948.492	30125
945.594	29764.6
942.694	29652.9
939.792	29722.2
936.89	30005.8
933.985	29728.8
931.079	29818.5
928.171	29611.5
925.262	29585.2
922.351	29242.1
919.439	29491.4
916.525	29498.6
913.61	29500.7
910.693	29410.2
907.774	29710.3
904.854	28980.3
901.932	29136.6
899.008	29613.3
896.083	29440.8
893.157	29512
890.229	29416.6
887.299	29546.5
884.367	29760.7
881.435	29389.2
878.5	29590.5
875.564	29817
872.626	29834
869.687	29641.8
866.746	29707.3
863.803	29757.4
860.859	29774.4
857.914	29946.6
854.966	29889.6
852.017	29669.9
849.067	29544.5
846.115	29482.7
843.161	29580.9
840.206	29534.4
837.249	29323
834.29	29560.5
831.33	29744.5
828.368	29543.5
825.405	29474.3
822.44	29640.3
819.473	29161.6
816.505	29438.7
813.535	29405
810.563	29290.6
807.59	29254.4
804.616	29283.8
801.639	29343.4
798.661	29760.5
795.682	29459.9
792.7	28943.3
789.718	29181.3
786.733	29610.1
783.747	29380.5
780.759	29550.2
777.77	29631.8
774.779	29500.3
771.786	29358.9
768.792	29382.9
765.796	29374.3
762.798	29568.4
759.799	29604.7
756.798	29256.1
753.796	29372.5
750.791	29441.3
747.786	29345.3
744.778	29321.7
741.769	29283.2
738.758	29222.4
735.746	28840.4
732.732	28827.1
729.716	28863.5
726.699	29118.5
723.68	28814.4
720.659	28984.8
717.637	28934.1
714.613	29062.1
711.587	29127.9
708.56	28955.8
705.531	29016.7
702.5	29317.4
699.468	29506.5
696.434	29295.1
693.398	29046.8
690.361	29327
687.322	29481.1
684.281	29361.3
681.239	29217
678.195	28809.2
675.149	29536.9
672.101	29761.8
669.052	29106
666.002	29033.4
662.949	29093.5
659.895	28859
656.839	28624.7
653.782	28792.8
650.723	28629.8
647.662	28900.7
644.599	28480.7
641.535	28416
638.469	28791.7
635.401	28462.9
632.332	28706.1
629.261	28429
626.188	28862.3
623.114	28836.6
620.038	28964.5
616.96	28816.9
613.88	28844.8
610.799	28746.1
607.716	28973.4
604.631	28908.7
601.545	28900
598.457	28670.3
595.367	28877.7
592.276	28997.5
589.182	28697.8
586.087	28786.1
582.991	28765.3
579.892	28478.2
576.792	28651.1
573.691	28226.7
570.587	28416.4
567.482	28410.2
564.375	28295.5
561.266	28238.8
558.156	28109.8
555.043	28062.9
551.93	28090.6
548.814	28017.2
545.697	28001.6
542.577	28221.7
539.457	28340.5
536.334	28593.7
533.21	28325.8
530.084	28398.8
526.956	28414.1
523.826	28630.7
520.695	28495
517.562	28220.7
514.427	28508.7
511.291	28268.1
508.152	27970.4
505.012	28059.9
501.871	28070.5
498.727	28193.1
495.582	27915.2
492.435	28252.2
489.286	27812.6
486.135	27804.2
482.983	28017
479.829	27744.6
476.673	27546.1
473.516	27554.5
470.356	27584.1
467.195	28216.3
464.032	27871
460.867	27914.6
457.701	28322.9
454.533	28278.6
451.363	28163.5
448.191	28003.5
445.017	28380
441.842	28246
438.665	28192.4
435.486	28193.1
432.305	28021.7
429.123	28255.8
425.939	28037.4
422.753	28040.5
419.565	27831.9
416.375	28053.7
413.184	28188.3
409.991	27700.5
406.796	27821.1
403.599	27857
400.4	28017.2
397.2	27816.3
393.998	27899.1
390.794	27328.7
387.588	27949.6
384.38	27973.6
381.171	28191.5
377.96	27890.7
374.747	27662.6
371.532	27700.7
368.315	27647.8
365.097	27576.3
361.876	27646.9
358.654	27587.1
355.43	27578.5
352.205	27530.4
348.977	27412.7
345.748	27422.8
342.516	27439.8
339.283	27389.5
336.049	27529.3
332.812	27497.6
329.573	27280.6
326.333	27524.4
323.091	27661.5
319.847	27662
316.601	27590.9
313.353	27579.9
310.104	27072.8
306.852	27315.8
303.599	27540
300.344	26900.2
297.087	27218.8
293.829	27191.8
290.568	26790.1
287.306	26901.3
284.041	27187
280.775	26969.6
277.507	27050.6
274.237	27129.3
270.966	27173.5
267.692	26970.3
264.417	26822.2
261.14	27006
257.86	26951.8
254.579	26707.9
251.297	27033.1
248.012	26933.3
244.725	27045.7
241.437	26941.4
238.147	26766.6
234.854	26405.2
231.56	27020.7
228.264	26707.3
224.966	26587.5
221.667	26951.9
218.365	26759.4
215.062	26619.3
211.756	26690.3
208.449	27101.4
205.14	26857
201.829	26515.6
198.516	26747.2
195.201	26883.5
191.885	26807.1
188.566	26613.3
185.246	26546.2
181.923	26573.9
178.599	26707.6
175.273	26649.5
171.945	26659.1
168.615	27092
165.283	26624.1
161.949	26728.1
158.613	26769
155.276	26684.1
151.936	26439.8
148.595	26790.4
145.252	26858.1
141.906	26237.5
138.559	26733.2
135.21	26673.1
131.859	26550.4
128.506	26401
125.151	26399.3
121.795	26261.3
118.436	26315.5
115.075	26503.4
111.713	26082.3
108.348	24701.2
104.982	23263.6
101.614	21349.1
100.49	20982.2