File: Spicy-Raman/model_train_and_validate/Raman_Data/polyamide/nylon/20191120 Set2Sample5c-1_.txt
3201.26	29.479
3199.48	33.6801
3197.7	54.7053
3195.91	33.6495
3194.13	54.6557
3192.35	54.631
3190.56	25.2029
3188.77	62.9786
3186.99	33.5733
3185.2	25.1686
3183.41	41.9286
3181.62	16.7638
3179.83	62.8359
3178.04	41.8716
3176.25	16.741
3174.46	41.8336
3172.66	8.36291
3170.87	41.7956
3169.07	33.4213
3167.28	33.4061
3165.48	33.3909
3163.68	41.7197
3161.89	33.3606
3160.09	54.1863
3158.29	49.9954
3156.49	20.822
3154.68	54.1125
3152.88	49.9273
3151.08	24.9523
3149.27	33.2546
3147.47	12.4648
3145.66	53.9895
3143.86	45.6627
3142.05	8.29853
3140.24	45.6211
3138.43	53.8913
3136.62	45.5796
3134.81	57.984
3133	53.8177
3131.19	37.2415
3129.38	24.8163
3127.56	53.7442
3125.75	4.13229
3123.93	61.9561
3122.12	-4.12852
3120.3	33.0131
3118.48	57.7466
3116.66	49.4745
3114.84	41.21
3113.02	49.4294
3111.2	53.5241
3109.38	32.9229
3107.56	37.0213
3105.73	32.8928
3103.91	16.4389
3102.08	49.2942
3100.26	41.0598
3098.43	4.1041
3096.6	45.1245
3094.77	20.5018
3092.94	49.1818
3091.11	40.9661
3089.28	32.7579
3087.45	53.2073
3085.61	40.9099
3083.78	53.1586
3081.95	53.1343
3080.11	44.9392
3078.27	40.8352
3076.44	28.5715
3074.6	57.1169
3072.76	69.3246
3070.92	57.0647
3069.08	20.3709
3067.24	40.7232
3065.4	77.3386
3063.55	52.8917
3061.71	32.5338
3059.86	28.4541
3058.02	65.008
3056.17	56.856
3054.32	44.6521
3052.48	48.689
3050.63	44.6112
3048.78	36.4833
3046.93	72.9332
3045.08	24.2999
3043.22	44.5294
3041.37	28.3239
3039.52	64.7106
3037.66	28.2979
3035.8	28.2849
3033.95	32.3108
3032.09	8.07399
3030.23	32.2811
3028.37	32.2663
3026.51	20.1572
3024.65	48.355
3022.79	60.416
3020.93	48.3106
3019.06	40.2403
3017.2	56.3106
3015.33	56.2847
3013.47	56.2588
3011.6	60.2496
3009.73	48.1775
3007.86	64.2072
3006	76.2109
3004.12	52.1203
3002.25	48.0889
3000.38	60.0835
2998.51	64.0596
2996.63	64.0301
2994.76	80.0008
2992.88	63.9711
2991.01	63.9417
2989.13	75.8958
2987.25	15.9707
2985.37	47.89
2983.49	39.89
2981.61	43.8587
2979.73	103.618
2977.85	43.8183
2975.97	43.7981
2974.08	87.5558
2972.2	63.6476
2970.31	91.4512
2968.42	63.5889
2966.54	119.174
2964.65	71.4715
2962.76	55.5633
2960.87	103.141
2958.98	111.024
2957.08	107.009
2955.19	95.0756
2953.3	95.0317
2951.4	87.0721
2949.51	102.856
2947.61	106.762
2945.71	134.38
2943.81	122.466
2941.92	130.307
2940.02	157.874
2938.12	197.252
2936.21	153.785
2934.31	114.3
2932.41	157.583
2930.5	110.257
2928.6	153.501
2926.69	137.693
2924.78	157.291
2922.88	121.844
2920.97	121.788
2919.06	145.292
2917.15	153.075
2915.24	172.62
2913.32	168.618
2911.41	152.862
2909.5	172.38
2907.58	152.72
2905.67	187.877
2903.75	148.667
2901.83	218.986
2899.91	168.072
2897.99	164.087
2896.07	156.201
2894.15	222.483
2892.23	175.563
2890.31	179.381
2888.38	210.48
2886.46	253.238
2884.53	214.179
2882.61	241.326
2880.68	202.308
2878.75	194.437
2876.82	221.555
2874.89	213.682
2872.96	139.799
2871.03	186.313
2869.1	201.745
2867.16	182.261
2865.23	236.442
2863.29	236.332
2861.35	178.135
2859.42	212.888
2857.48	208.92
2855.54	220.424
2853.6	239.648
2851.66	220.219
2849.72	231.701
2847.77	192.995
2845.83	154.324
2843.89	146.539
2841.94	119.489
2839.99	107.876
2838.05	77.0182
2836.1	80.8314
2834.15	88.4883
2832.2	92.2926
2830.25	49.9685
2828.3	61.471
2826.34	53.762
2824.39	80.6054
2822.44	42.2022
2820.48	46.0173
2818.52	80.4926
2816.57	80.455
2814.61	84.2469
2812.65	80.3799
2810.69	30.6066
2808.73	84.1288
2806.77	76.445
2804.8	68.7684
2802.84	57.2802
2800.88	45.8027
2798.91	80.1173
2796.94	53.3866
2794.98	49.5501
2793.01	76.1952
2791.04	79.9675
2789.07	95.1549
2787.1	76.0883
2785.13	95.0658
2783.15	41.8094
2781.18	56.9861
2779.2	72.1486
2777.23	56.9327
2775.25	49.3186
2773.27	106.175
2771.3	68.2233
2769.32	71.9797
2767.34	68.1594
2765.35	83.2669
2763.37	87.0109
2761.39	113.439
2759.4	68.0316
2757.42	49.1109
2755.43	64.1918
2753.45	52.839
2751.46	82.9938
2749.47	94.2669
2747.48	90.4537
2745.49	82.877
2743.5	86.6034
2741.51	60.2176
2739.51	56.4275
2737.52	82.7214
2735.52	60.1327
2733.53	75.1306
2731.53	67.5857
2729.53	90.072
2727.53	97.5321
2725.53	101.236
2723.53	89.9449
2721.53	74.9189
2719.53	71.1394
2717.52	108.53
2715.52	78.5538
2713.51	59.8223
2711.51	115.851
2709.5	74.7075
2707.49	74.6723
2705.48	97.0283
2703.47	104.443
2701.46	33.5551
2699.45	96.8912
2697.43	33.5235
2695.42	70.7384
2693.4	70.7051
2691.39	78.1108
2689.37	78.074
2687.35	52.0248
2685.34	63.1431
2683.32	103.951
2681.29	66.7944
2679.27	89.0171
2677.25	88.9751
2675.23	74.1109
2673.2	74.0759
2671.18	77.743
2669.15	77.7062
2667.12	77.6695
2665.09	99.8136
2663.06	66.511
2661.03	84.9461
2659	77.5228
2656.97	107.005
2654.94	103.266
2652.9	77.4129
2650.87	110.537
2648.83	110.485
2646.79	77.303
2644.76	58.8697
2642.72	80.9075
2640.68	95.5727
2638.64	99.2015
2636.59	84.465
2634.55	80.7543
2632.51	113.736
2630.46	80.6778
2628.42	98.9668
2626.37	84.2651
2624.32	69.5773
2622.27	65.8841
2620.22	80.4868
2618.17	73.1351
2616.12	73.1004
2614.07	84.0256
2612.02	113.198
2609.96	94.8953
2607.9	80.2579
2605.85	98.4516
2603.79	80.1817
2601.73	51.0005
2599.67	101.953
2597.61	83.7069
2595.55	98.218
2593.49	90.8994
2591.43	94.4904
2589.36	112.608
2587.3	47.2003
2585.23	79.8394
2583.16	79.8015
2581.09	61.6354
2579.02	90.5972
2576.95	76.0654
2574.88	65.1679
2572.81	115.799
2570.74	75.9569
2568.66	104.843
2566.59	65.0439
2564.51	101.131
2562.43	79.4224
2560.36	111.86
2558.28	86.5601
2556.2	68.494
2554.12	115.303
2552.03	90.0378
2549.95	86.3951
2547.87	82.7558
2545.78	82.7163
2543.7	79.0822
2541.61	111.381
2539.52	79.0068
2537.43	89.7376
2535.34	100.458
2533.25	89.6519
2531.16	118.284
2529.06	103.897
2526.97	114.59
2524.88	128.852
2522.78	67.9728
2520.68	67.9404
2518.58	103.649
2516.49	100.027
2514.39	135.686
2512.28	85.6554
2510.18	89.1817
2508.08	139.057
2505.97	81.9686
2503.87	96.178
2501.76	81.8902
2499.66	96.0859
2497.55	88.9258
2495.44	88.8833
2493.33	99.5016
2491.22	92.35
2489.11	110.057
2486.99	102.907
2484.88	102.858
2482.76	99.2634
2480.65	106.303
2478.53	74.3761
2476.41	70.8004
2474.29	127.38
2472.17	134.392
2470.05	106.048
2467.93	95.3973
2465.8	109.478
2463.68	123.544
2461.55	109.373
2459.43	116.373
2457.3	158.614
2455.17	91.5997
2453.04	98.5984
2450.91	73.9132
2448.78	105.54
2446.65	112.521
2444.51	101.924
2442.38	133.491
2440.24	112.359
2438.11	94.7574
2435.97	105.235
2433.83	122.716
2431.69	91.1162
2429.55	126.1
2427.41	115.536
2425.27	108.482
2423.12	122.42
2420.98	122.361
2418.83	146.763
2416.68	104.78
2414.54	101.239
2412.39	132.594
2410.24	108.116
2408.09	122.008
2405.93	118.465
2403.78	132.338
2401.63	118.351
2399.47	104.377
2397.31	132.146
2395.16	114.703
2393	159.812
2390.84	145.845
2388.68	114.537
2386.52	111.013
2384.35	162.971
2382.19	100.508
2380.03	142.029
2377.86	159.273
2375.69	131.509
2373.53	86.4775
2371.36	131.382
2369.19	120.951
2367.02	107.077
2364.84	138.097
2362.67	113.874
2360.5	131.065
2358.32	141.343
2356.14	161.949
2353.97	123.986
2351.79	144.581
2349.61	168.596
2347.43	116.928
2345.25	116.871
2343.06	130.558
2340.88	137.362
2338.7	133.863
2336.51	130.368
2334.32	120.017
2332.14	143.951
2329.95	154.158
2327.76	123.267
2325.57	140.319
2323.37	147.092
2321.18	147.021
2318.99	143.532
2316.79	143.462
2314.59	157.049
2312.4	126.261
2310.2	129.61
2308	143.184
2305.8	132.892
2303.6	170.291
2301.39	139.571
2299.19	163.321
2296.98	142.836
2294.78	132.569
2292.57	115.517
2290.36	176.587
2288.15	132.375
2285.94	135.704
2283.73	142.419
2281.52	142.35
2279.31	138.893
2277.09	125.281
2274.88	125.22
2272.66	142.073
2270.44	145.384
2268.22	179.107
2266	111.465
2263.78	178.933
2261.56	141.727
2259.34	148.403
2257.11	168.558
2254.89	192.062
2252.66	148.186
2250.43	124.55
2248.2	174.958
2245.97	154.695
2243.74	171.426
2241.51	137.745
2239.28	154.468
2237.04	164.462
2234.81	171.091
2232.57	150.889
2230.33	137.409
2228.09	147.391
2225.86	157.364
2223.61	147.247
2221.37	160.554
2219.13	167.162
2216.89	173.764
2214.64	163.659
2212.39	150.225
2210.15	163.498
2207.9	170.088
2205.65	170.005
2203.4	179.917
2201.15	143.197
2198.89	163.098
2196.64	133.076
2194.38	156.288
2192.13	172.829
2189.87	146.168
2187.61	146.097
2185.35	162.619
2183.09	218.93
2180.83	172.406
2178.57	172.321
2176.3	155.675
2174.04	185.394
2171.77	158.831
2169.51	168.675
2167.24	175.204
2164.97	175.118
2162.7	178.334
2160.42	161.742
2158.15	191.356
2155.88	194.559
2153.6	197.759
2151.33	204.251
2149.05	171.223
2146.77	174.43
2144.49	184.212
2142.21	138.091
2139.93	187.317
2137.65	193.794
2135.36	167.434
2133.08	210.01
2130.79	186.948
2128.5	219.638
2126.21	163.828
2123.92	176.847
2121.63	150.573
2119.34	189.759
2117.05	212.556
2114.75	196.109
2112.46	163.343
2110.16	159.998
2107.86	202.346
2105.57	225.08
2103.27	208.667
2100.96	149.905
2098.66	192.175
2096.36	192.08
2094.05	182.223
2091.75	159.366
2089.44	208.049
2087.13	207.946
2084.82	178.615
2082.51	214.232
2080.2	207.637
2077.89	239.962
2075.58	165.297
2073.26	207.329
2070.95	229.892
2068.63	200.651
2066.31	200.552
2063.99	216.618
2061.67	200.353
2059.35	190.564
2057.03	229.209
2054.7	193.602
2052.38	232.207
2050.05	228.868
2047.72	238.421
2045.4	177.117
2043.07	212.434
2040.73	183.375
2038.4	205.792
2036.07	205.69
2033.74	208.8
2031.4	199.065
2029.06	211.802
2026.73	230.942
2024.39	230.827
2022.05	230.713
2019.7	230.598
2017.36	230.483
2015.02	214.371
2012.67	220.66
2010.33	226.943
2007.98	204.466
2005.63	182.012
2003.28	226.604
2000.93	248.822
1998.58	235.944
1996.23	226.266
1993.87	222.968
1991.52	238.775
1989.16	235.474
1986.8	273.523
1984.44	222.524
1982.08	254.186
1979.72	254.059
1977.36	257.107
1975	253.806
1972.63	240.995
1970.27	247.214
1967.9	247.09
1965.53	243.801
1963.16	243.679
1960.79	237.231
1958.42	284.535
1956.05	243.314
1953.67	236.875
1951.3	236.757
1948.92	277.656
1946.54	264.903
1944.16	258.466
1941.78	267.788
1939.4	223.57
1937.02	270.668
1934.63	270.532
1932.25	279.829
1929.86	326.828
1927.48	292.113
1925.09	226.039
1922.7	276.131
1920.31	294.81
1917.91	244.507
1915.52	250.651
1913.13	250.525
1910.73	278.57
1908.33	272.173
1905.94	256.402
1903.54	278.151
1901.14	281.135
1898.73	290.36
1896.33	283.973
1893.93	296.307
1891.52	268.101
1889.11	261.734
1886.71	295.86
1884.3	289.486
1881.89	311.119
1879.48	279.866
1877.06	295.266
1874.65	285.798
1872.23	294.969
1869.82	257.58
1867.4	288.469
1864.98	325.527
1862.56	347.053
1860.14	315.907
1857.72	337.417
1855.29	300.119
1852.87	296.876
1850.44	315.271
1848.02	339.827
1845.59	318.042
1843.16	358.002
1840.73	339.314
1838.29	326.81
1835.86	311.237
1833.43	298.76
1830.99	326.316
1828.55	335.382
1826.11	384.418
1823.68	307.379
1821.23	316.44
1818.79	343.917
1816.35	343.743
1813.9	349.705
1811.46	361.792
1809.01	352.416
1806.56	361.426
1804.11	352.059
1801.66	342.702
1799.21	348.645
1796.76	348.469
1794.3	326.906
1791.85	387.813
1789.39	366.252
1786.93	332.511
1784.47	353.686
1782.01	374.839
1779.55	310.684
1777.09	344.015
1774.62	340.798
1772.16	407.534
1769.69	367.81
1767.22	343.318
1764.75	428.171
1762.28	327.794
1759.81	360.997
1757.34	351.718
1754.86	369.723
1752.39	405.883
1749.91	429.896
1747.43	390.341
1744.95	411.313
1742.47	395.99
1739.99	419.959
1737.51	386.528
1735.02	374.259
1732.54	386.135
1730.05	391.969
1727.56	412.865
1725.07	391.571
1722.58	397.392
1720.09	379.136
1717.6	381.951
1715.1	387.768
1712.61	399.588
1710.11	342.33
1707.61	402.183
1705.11	437.976
1702.61	488.724
1700.11	437.529
1697.6	473.249
1695.1	434.09
1692.59	460.798
1690.09	445.609
1687.58	433.426
1685.07	472.043
1682.56	447.914
1680.04	456.639
1677.53	474.304
1675.01	435.302
1672.5	479.779
1669.98	458.685
1667.46	461.427
1664.94	470.118
1662.42	529.356
1659.9	466.665
1657.37	439.688
1654.85	484.004
1652.32	468.917
1649.79	519.104
1647.26	459.543
1644.73	518.573
1642.2	494.613
1639.67	485.479
1637.13	526.653
1634.6	443.581
1632.06	425.62
1629.52	469.714
1626.98	522.621
1624.44	519.402
1621.9	474.891
1619.36	498.233
1616.81	433.152
1614.26	471.216
1611.72	476.861
1609.17	429.543
1606.62	446.966
1604.07	482.005
1601.51	443.569
1598.96	460.958
1596.41	448.983
1593.85	478.082
1591.29	501.288
1588.73	489.311
1586.17	456.845
1583.61	474.172
1581.05	497.332
1578.48	464.913
1575.91	470.518
1573.35	505.328
1570.78	490.47
1568.21	507.725
1565.64	484.132
1563.07	466.393
1560.49	506.941
1557.92	553.271
1555.34	520.971
1552.76	517.793
1550.18	523.341
1547.6	473.67
1545.02	482.139
1542.44	522.532
1539.85	501.952
1537.27	524.892
1534.68	452.16
1532.09	533.041
1529.5	532.766
1526.91	538.279
1524.32	526.431
1521.72	552.178
1519.13	534.555
1516.53	525.615
1513.94	554.208
1511.34	525.071
1508.74	539.217
1506.13	553.348
1503.53	538.659
1500.93	509.59
1498.32	506.449
1495.71	534.947
1493.1	569.165
1490.49	548.758
1487.88	479.556
1485.27	599.852
1482.66	651.176
1480.04	576.293
1477.42	618.979
1474.81	673.076
1472.19	655.551
1469.57	675.239
1466.94	666.31
1464.32	794.584
1461.69	702.756
1459.07	790.903
1456.44	790.493
1453.81	775.821
1451.18	806.776
1448.55	769.316
1445.92	897.069
1443.28	865.292
1440.65	924.585
1438.01	810.368
1435.37	846.891
1432.73	766.918
1430.09	718.257
1427.45	669.646
1424.8	657.953
1422.16	657.61
1419.51	648.769
1416.86	679.578
1414.21	597.151
1411.56	644.926
1408.91	633.282
1406.25	630.126
1403.6	655.215
1400.94	595.596
1398.29	648.889
1395.63	659.829
1392.97	628.484
1390.3	642.24
1387.64	574.335
1384.97	650.011
1382.31	680.608
1379.64	609.978
1376.97	736.087
1374.3	682.35
1371.63	729.704
1368.96	698.467
1366.28	678.476
1363.61	736.966
1360.93	750.584
1358.25	685.809
1355.57	682.653
1352.89	640.351
1350.2	662.374
1347.52	645.267
1344.83	670.056
1342.15	700.4
1339.46	669.354
1336.77	671.791
1334.08	643.578
1331.38	690.579
1328.69	720.831
1325.99	726.016
1323.3	672.811
1320.6	775.272
1317.9	769.31
1315.2	691.183
1312.49	796.246
1309.79	776.417
1307.08	748.295
1304.38	817.152
1301.67	819.491
1298.96	874.402
1296.25	851.817
1293.53	818.199
1290.82	839.87
1288.1	800.771
1285.39	769.991
1282.67	761.311
1279.95	733.341
1277.23	732.955
1274.5	718.799
1271.78	663.369
1269.05	649.263
1266.33	679.168
1263.6	687.054
1260.87	670.211
1258.14	645.15
1255.4	644.81
1252.67	702.061
1249.93	674.28
1247.2	610.915
1244.46	621.545
1241.72	634.9
1238.98	629.095
1236.23	604.158
1233.49	592.91
1230.74	649.945
1228	644.143
1225.25	602.882
1222.5	618.923
1219.74	621.321
1216.99	599.203
1214.24	617.941
1211.48	617.614
1208.72	598.252
1205.96	600.653
1203.2	657.38
1200.44	635.312
1197.68	567.136
1194.91	610.23
1192.15	539.428
1189.38	560.817
1186.61	628.215
1183.84	600.818
1181.07	611.319
1178.29	632.623
1175.52	610.67
1172.74	599.544
1169.96	628.917
1167.18	636.676
1164.4	644.427
1161.62	633.305
1158.84	624.888
1156.05	605.712
1153.26	686.108
1150.48	648.095
1147.69	663.877
1144.89	617.856
1142.1	585.309
1139.31	614.515
1136.51	691.968
1133.71	737.17
1130.91	763.569
1128.11	701.574
1125.31	711.906
1122.51	743.625
1119.7	660.351
1116.9	662.671
1114.09	689.024
1111.28	712.68
1108.47	669.615
1105.66	682.59
1102.84	716.87
1100.03	727.141
1097.21	718.767
1094.39	713.062
1091.57	720.659
1088.75	712.3
1085.93	727.858
1083.11	706.229
1080.28	758.923
1077.45	702.822
1074.62	723.652
1071.79	723.265
1068.96	765.245
1066.13	788.654
1063.29	870.229
1060.46	801.028
1057.62	755.681
1054.78	731.509
1051.94	733.757
1049.09	709.622
1046.25	772.52
1043.41	703.591
1040.56	690.045
1037.71	681.778
1034.86	681.412
1032.01	715.231
1029.15	738.5
1026.3	701.33
1023.44	771.836
1020.59	634.98
1017.73	729.048
1014.87	686.72
1012	675.872
1009.14	688.6
1006.27	628.043
1003.41	732.322
1000.54	692.718
997.667	697.571
994.796	658.027
991.922	730.748
989.047	683.404
986.171	630.896
983.293	734.78
980.414	697.926
977.533	705.358
974.65	775.216
971.766	881.398
968.88	992.662
965.993	1264.83
963.104	1380.96
960.214	1393.19
957.322	1244.64
954.429	1039.23
951.534	929.88
948.637	815.471
945.739	758.108
942.839	724.08
939.938	700.428
937.035	705.216
934.131	702.253
931.225	683.81
928.317	732.442
925.408	703.692
922.497	700.735
919.585	754.428
916.671	656.229
913.756	681.594
910.839	760.916
907.92	742.519
905	736.981
902.078	690.385
899.155	746.443
896.23	666.564
893.304	758.446
890.376	765.718
887.446	726.909
884.515	764.887
881.582	767.029
878.647	741.059
875.711	753.427
872.774	770.886
869.834	778.121
866.893	821.046
863.951	772.179
861.007	809.966
858.061	771.341
855.114	793.82
852.165	806.103
849.215	787.874
846.263	779.825
843.309	741.319
840.354	748.528
837.397	763.337
834.438	735.04
831.478	737.173
828.517	739.304
825.553	761.675
822.588	713.207
819.622	738.096
816.654	732.641
813.684	732.241
810.712	693.988
807.739	701.176
804.765	715.919
801.789	705.45
798.811	692.475
795.831	692.097
792.85	689.203
789.867	691.341
786.883	698.501
783.897	730.765
780.909	725.346
777.92	644.678
774.929	664.383
771.936	679.054
768.942	691.204
765.946	695.832
762.949	687.946
759.949	715.072
756.949	677.198
753.946	721.782
750.942	751.34
747.936	686.064
744.929	693.169
741.92	687.805
738.909	692.409
735.897	697.008
732.883	758.824
729.867	683.81
726.85	636.216
723.831	720.318
720.81	724.887
717.788	717.046
714.764	686.895
711.739	721.215
708.711	733.204
705.683	698.142
702.652	697.758
699.62	741.888
696.586	751.366
693.55	723.78
690.513	666.598
687.474	759.996
684.433	729.984
681.391	690.145
678.347	734.107
675.302	704.158
672.254	720.995
669.205	723.057
666.155	712.826
663.102	707.52
660.048	709.585
656.992	684.654
653.935	755.402
650.876	735.375
647.815	695.771
644.753	702.733
641.688	792.891
638.623	728.861
635.555	752.903
632.486	781.805
629.415	783.814
626.342	771.179
623.268	753.679
620.192	884.9
617.114	835.683
614.035	771.909
610.953	769.048
607.871	834.296
604.786	780.352
601.7	818.794
598.612	794.058
595.522	854.292
592.431	839.265
589.337	792.738
586.243	831.065
583.146	816.075
580.048	856.767
576.948	873.224
573.846	870.321
570.743	807.017
567.637	794.494
564.53	825.429
561.422	810.497
558.311	843.799
555.199	787.911
552.086	801.922
548.97	791.849
545.853	851.546
542.734	788.564
539.613	783.32
536.49	864.535
533.366	770.448
530.24	863.572
527.113	803.155
523.983	788.33
520.852	819.024
517.719	797.026
514.584	775.053
511.448	757.885
508.31	829.146
505.17	819.131
502.028	847.316
498.885	818.218
495.739	843.986
492.592	850.664
489.444	769.218
486.293	840.193
483.141	787.39
479.987	824.99
476.831	848.29
473.674	814.568
470.514	871.077
467.353	837.379
464.191	877.215
461.026	829.334
457.86	899.916
454.691	885.211
451.522	894.177
448.35	924.412
445.176	952.249
442.001	972.969
438.824	932.3
435.645	995.468
432.465	947.758
429.282	963.72
426.098	984.374
422.912	939.103
419.724	938.576
416.535	907.486
413.344	888.179
410.15	953.434
406.956	868.405
403.759	919.523
400.56	919.006
397.36	913.803
394.158	857.087
390.954	968.947
387.748	865.48
384.541	893.047
381.331	911.236
378.12	896.712
374.907	912.544
371.693	919.028
368.476	871.885
365.258	869.064
362.037	910.489
358.815	907.649
355.592	855.965
352.366	846.184
349.139	908.437
345.909	912.569
342.678	898.13
339.445	955.608
336.21	887.843
332.974	947.579
329.735	861.37
326.495	971.965
323.253	955.225
320.009	963.932
316.763	933.353
313.516	923.589
310.266	973.835
307.015	922.544
303.762	894.362
300.507	923.804
297.25	930.188
293.992	961.878
290.731	901.537
287.469	951.594
284.205	969.432
280.939	952.811
277.671	949.976
274.401	1002.18
271.129	997.032
267.856	998.757
264.581	1005.06
261.304	1013.64
258.025	1017.64
254.744	975.92
251.461	1046.18
248.176	1038.73
244.89	997.074
241.601	1017.03
238.311	1098.5
235.019	1063.71
231.725	1060.82
228.429	1085.25
225.131	1020.96
221.832	1086.29
218.53	1056.14
215.227	1085.05
211.922	1113.92
208.615	1054.34
205.306	1089.99
201.995	1073.52
198.682	1102.33
195.367	1081.34
192.051	1144.03
188.732	1175.01
185.412	1065.94
182.089	1126.27
178.765	1139.17
175.439	1120.48
172.111	1185.18
168.781	1170.99
165.45	1251.35
162.116	1198.9
158.78	1229.68
155.443	1235.72
152.103	1217.05
148.762	1250.02
145.419	1287.43
142.074	1331.52
138.727	1357.65
135.378	1350.15
132.027	1344.9
128.674	1362.02
125.319	1383.59
121.962	1447.58
118.604	1486.94
115.243	1459.31
111.881	1425.02
108.517	1393
105.15	1329.83
101.782	1204.4
100.659	1221.98