File: Spicy-Raman/model_train_and_validate/Raman_Data/polyamide/nylon/20191120 Set2Sample5e-1_.txt
3201.26	58.9579
3199.48	50.5201
3197.7	25.2486
3195.91	25.2372
3194.13	4.20429
3192.35	42.0238
3190.56	33.6038
3188.77	50.3829
3186.99	71.3433
3185.2	33.5581
3183.41	20.9643
3181.62	54.4825
3179.83	25.1343
3178.04	25.1229
3176.25	41.8526
3174.46	54.3836
3172.66	41.8146
3170.87	58.5138
3169.07	50.1319
3167.28	20.8788
3165.48	25.0432
3163.68	33.3758
3161.89	50.0409
3160.09	12.5045
3158.29	33.3303
3156.49	29.1507
3154.68	33.3
3152.88	41.6061
3151.08	41.5871
3149.27	20.7841
3147.47	24.9296
3145.66	41.5304
3143.86	24.9069
3142.05	20.7463
3140.24	4.14737
3138.43	24.8729
3136.62	70.4412
3134.81	28.992
3133	20.6991
3131.19	16.5518
3129.38	33.0884
3127.56	24.805
3125.75	20.6614
3123.93	20.652
3122.12	16.5141
3120.3	12.3799
3118.48	53.6219
3116.66	32.983
3114.84	0
3113.02	70.025
3111.2	-12.3517
3109.38	49.3843
3107.56	-16.4539
3105.73	8.22321
3103.91	57.5362
3102.08	41.0785
3100.26	49.2717
3098.43	32.8328
3096.6	41.0223
3094.77	20.5018
3092.94	28.6894
3091.11	61.4491
3089.28	40.9474
3087.45	28.6501
3085.61	32.728
3083.78	-8.17825
3081.95	12.2618
3080.11	44.9392
3078.27	40.8352
3076.44	24.4899
3074.6	28.5585
3072.76	44.8571
3070.92	77.4449
3069.08	32.5935
3067.24	32.5786
3065.4	20.3523
3063.55	36.6173
3061.71	16.2669
3059.86	28.4541
3058.02	44.693
3056.17	28.428
3054.32	48.7114
3052.48	4.05742
3050.63	36.5
3048.78	48.6444
3046.93	16.2074
3045.08	64.7998
3043.22	52.6257
3041.37	52.6015
3039.52	72.7995
3037.66	44.4681
3035.8	56.5699
3033.95	44.4273
3032.09	32.296
3030.23	56.492
3028.37	32.2663
3026.51	44.3458
3024.65	40.2959
3022.79	44.3051
3020.93	72.4659
3019.06	48.2884
3017.2	40.2218
3015.33	48.244
3013.47	28.1294
3011.6	52.2163
3009.73	32.1183
3007.86	72.233
3006	32.0888
3004.12	56.1296
3002.25	44.0815
3000.38	36.0501
2998.51	24.0223
2996.63	28.0132
2994.76	48.0005
2992.88	47.9784
2991.01	35.9672
2989.13	43.9397
2987.25	59.8901
2985.37	63.8534
2983.49	91.7469
2981.61	47.8459
2979.73	43.8385
2977.85	35.8514
2975.97	27.8715
2974.08	67.6568
2972.2	27.8458
2970.31	71.5705
2968.42	63.5889
2966.54	79.4494
2964.65	91.3247
2962.76	75.4073
2960.87	59.5046
2958.98	130.85
2957.08	63.413
2955.19	83.1911
2953.3	110.87
2951.4	94.9878
2949.51	75.1639
2947.61	110.717
2945.71	86.9515
2943.81	94.8123
2941.92	134.255
2940.02	114.459
2938.12	145.966
2936.21	145.899
2934.31	90.6519
2932.41	130.006
2930.5	110.257
2928.6	157.437
2926.69	149.496
2924.78	129.765
2922.88	113.983
2920.97	137.502
2919.06	117.804
2917.15	149.15
2915.24	149.081
2913.32	133.326
2911.41	137.184
2909.5	172.38
2907.58	152.72
2905.67	113.509
2903.75	179.965
2901.83	136.866
2899.91	187.615
2897.99	148.46
2896.07	128.866
2894.15	218.58
2892.23	183.366
2890.31	163.783
2888.38	155.911
2886.46	163.631
2884.53	183.026
2882.61	179.048
2880.68	210.089
2878.75	171.104
2876.82	174.912
2874.89	147.635
2872.96	163.099
2871.03	147.497
2869.1	186.226
2867.16	147.36
2865.23	147.292
2863.29	232.458
2861.35	158.772
2859.42	170.31
2857.48	193.445
2855.54	185.62
2853.6	185.534
2851.66	173.857
2849.72	185.361
2847.77	169.835
2845.83	158.182
2843.89	165.821
2841.94	111.78
2839.99	80.9068
2838.05	61.6145
2836.1	69.284
2834.15	84.641
2832.2	69.2194
2830.25	61.4997
2828.3	72.9968
2826.34	53.762
2824.39	53.7369
2822.44	69.0581
2820.48	80.5302
2818.52	57.4947
2816.57	68.9614
2814.61	80.4174
2812.65	49.759
2810.69	65.039
2808.73	57.3606
2806.77	30.578
2804.8	45.8456
2802.84	76.3736
2800.88	61.0703
2798.91	49.5964
2796.94	64.8265
2794.98	38.1154
2793.01	41.9074
2791.04	72.3516
2789.07	49.4805
2787.1	53.2618
2785.13	76.0527
2783.15	49.4111
2781.18	75.9815
2779.2	37.9729
2777.23	79.7058
2775.25	83.4622
2773.27	68.2553
2771.3	30.3215
2769.32	56.8261
2767.34	53.0128
2765.35	68.1274
2763.37	94.5771
2761.39	56.7196
2759.4	71.8112
2757.42	49.1109
2755.43	60.4158
2753.45	60.3875
2751.46	67.904
2749.47	82.9549
2747.48	90.4537
2745.49	124.315
2743.5	86.6034
2741.51	33.8724
2739.51	71.4748
2737.52	56.4009
2735.52	48.8578
2733.53	63.861
2731.53	67.5857
2729.53	37.53
2727.53	71.2734
2725.53	74.9894
2723.53	78.7018
2721.53	74.9189
2719.53	78.6278
2717.52	78.5908
2715.52	97.2571
2713.51	56.0834
2711.51	85.9541
2709.5	33.6184
2707.49	37.3362
2705.48	104.492
2703.47	93.2525
2701.46	82.0236
2699.45	33.5393
2697.43	70.7718
2695.42	85.6307
2693.4	74.4264
2691.39	63.2326
2689.37	74.3562
2687.35	74.3211
2685.34	52.0002
2683.32	74.251
2681.29	96.4808
2679.27	70.4719
2677.25	59.3167
2675.23	88.9331
2673.2	66.6683
2671.18	62.9348
2669.15	48.1039
2667.12	70.2724
2665.09	51.7552
2663.06	73.9011
2661.03	103.413
2659	77.5228
2656.97	118.074
2654.94	77.4495
2652.9	92.1582
2650.87	73.6917
2648.83	88.3881
2646.79	66.2597
2644.76	84.6252
2642.72	95.6179
2640.68	106.6
2638.64	62.4602
2636.59	110.172
2634.55	66.0717
2632.51	99.0606
2630.46	88.0122
2628.42	76.9742
2626.37	87.9288
2624.32	98.873
2622.27	69.5443
2620.22	80.4868
2618.17	120.673
2616.12	84.0655
2614.07	54.7993
2612.02	40.1671
2609.96	80.296
2607.9	72.9617
2605.85	94.8052
2603.79	94.7602
2601.73	76.5007
2599.67	94.6702
2597.61	112.822
2595.55	50.9278
2593.49	101.807
2591.43	79.9534
2589.36	105.343
2587.3	87.139
2585.23	116.13
2583.16	76.1741
2581.09	83.3891
2579.02	115.964
2576.95	57.9546
2574.88	83.2701
2572.81	83.2305
2570.74	86.8079
2568.66	75.9207
2566.59	119.247
2564.51	93.9076
2562.43	79.4224
2560.36	64.951
2558.28	93.7734
2556.2	90.1237
2554.12	57.6517
2552.03	64.8272
2549.95	79.1955
2547.87	89.952
2545.78	68.3309
2543.7	115.029
2541.61	75.4516
2539.52	68.2331
2537.43	89.7376
2535.34	68.168
2533.25	78.8937
2531.16	75.2716
2529.06	103.897
2526.97	85.9425
2524.88	93.0599
2522.78	46.5077
2520.68	71.5162
2518.58	85.7784
2516.49	82.165
2514.39	103.55
2512.28	67.8105
2510.18	92.7489
2508.08	71.3112
2505.97	78.4048
2503.87	78.3673
2501.76	71.2089
2499.66	99.6447
2497.55	106.711
2495.44	67.5513
2493.33	106.609
2491.22	85.2462
2489.11	99.4062
2486.99	102.907
2484.88	102.858
2482.76	81.5378
2480.65	102.759
2478.53	106.252
2476.41	81.4205
2474.29	91.9964
2472.17	113.172
2470.05	113.118
2467.93	84.7976
2465.8	116.541
2463.68	102.365
2461.55	91.7318
2459.43	84.6348
2457.3	105.743
2455.17	98.6458
2453.04	98.5984
2450.91	84.4723
2448.78	94.9856
2446.65	73.8422
2444.51	115.982
2442.38	80.797
2440.24	105.337
2438.11	115.815
2435.97	73.6648
2433.83	98.1724
2431.69	115.648
2429.55	105.083
2427.41	133.042
2425.27	90.9847
2423.12	104.932
2420.98	111.873
2418.83	132.786
2416.68	115.258
2414.54	90.7657
2412.39	122.126
2410.24	115.092
2408.09	125.494
2405.93	97.5593
2403.78	118.408
2401.63	114.87
2399.47	114.814
2397.31	107.804
2395.16	93.8482
2393	132.019
2390.84	107.648
2388.68	121.479
2386.52	104.075
2384.35	152.569
2382.19	110.906
2380.03	103.924
2377.86	117.723
2375.69	114.206
2373.53	86.4775
2371.36	114.095
2369.19	131.319
2367.02	131.255
2364.84	86.3103
2362.67	134.579
2360.5	89.6759
2358.32	120.659
2356.14	86.1433
2353.97	106.766
2351.79	103.272
2349.61	110.103
2347.43	134.123
2345.25	120.309
2343.06	140.865
2340.88	140.797
2338.7	99.5395
2336.51	120.076
2334.32	150.879
2332.14	126.814
2329.95	106.198
2327.76	106.146
2325.57	112.94
2323.37	133.409
2321.18	157.278
2318.99	136.697
2316.79	116.136
2314.59	116.08
2312.4	133.086
2310.2	129.61
2308	88.6376
2305.8	95.4095
2303.6	173.697
2301.39	125.954
2299.19	142.906
2296.98	139.435
2294.78	118.972
2292.57	149.492
2290.36	112.065
2288.15	118.798
2285.94	125.526
2283.73	142.419
2281.52	142.35
2279.31	128.73
2277.09	108.351
2274.88	108.299
2272.66	152.221
2270.44	131.86
2268.22	125.037
2266	155.376
2263.78	151.924
2261.56	128.229
2259.34	128.166
2257.11	141.588
2254.89	154.997
2252.66	148.186
2250.43	161.578
2248.2	137.947
2245.97	158.058
2243.74	127.729
2241.51	151.184
2239.28	141.036
2237.04	124.185
2234.81	140.898
2232.57	147.535
2230.33	167.572
2228.09	123.943
2225.86	170.756
2223.61	143.9
2221.37	170.589
2219.13	163.819
2216.89	143.689
2214.64	123.579
2212.39	166.917
2210.15	166.835
2207.9	140.073
2205.65	126.67
2203.4	163.258
2201.15	166.508
2198.89	186.398
2196.64	153.037
2194.38	156.288
2192.13	159.535
2189.87	146.168
2187.61	149.417
2185.35	172.575
2183.09	152.587
2180.83	179.037
2178.57	119.299
2176.3	205.359
2174.04	178.773
2171.77	148.904
2169.51	125.68
2167.24	175.204
2164.97	135.468
2162.7	188.241
2160.42	191.45
2158.15	188.056
2155.88	158.285
2153.6	177.983
2151.33	171.307
2149.05	151.466
2146.77	164.556
2144.49	128.291
2142.21	164.394
2139.93	187.317
2137.65	118.247
2135.36	196.982
2133.08	183.759
2130.79	144.311
2128.5	163.909
2126.21	183.487
2123.92	170.297
2121.63	170.213
2119.34	199.574
2117.05	202.746
2114.75	166.693
2112.46	182.945
2110.16	156.732
2107.86	186.028
2105.57	182.674
2103.27	163.021
2100.96	149.905
2098.66	169.374
2096.36	185.569
2094.05	211.509
2091.75	182.133
2089.44	195.046
2087.13	178.704
2084.82	168.873
2082.51	172.035
2080.2	155.728
2077.89	220.506
2075.58	149.092
2073.26	191.132
2070.95	191.037
2068.63	236.251
2066.31	171.44
2063.99	200.453
2061.67	200.353
2059.35	187.334
2057.03	180.785
2054.7	180.695
2052.38	196.731
2050.05	167.622
2047.72	183.648
2045.4	193.218
2043.07	193.122
2040.73	199.461
2038.4	215.439
2036.07	176.765
2033.74	202.376
2031.4	176.59
2029.06	192.547
2026.73	189.244
2024.39	198.768
2022.05	221.1
2019.7	195.368
2017.36	211.276
2015.02	188.774
2012.67	236.65
2010.33	210.961
2007.98	201.272
2005.63	185.206
2003.28	229.796
2000.93	226.491
1998.58	226.379
1996.23	200.771
1993.87	213.412
1991.52	261.061
1989.16	197.289
1986.8	216.274
1984.44	228.881
1982.08	206.526
1979.72	257.235
1977.36	225.365
1975	266.496
1972.63	218.798
1970.27	247.214
1967.9	247.09
1965.53	202.639
1963.16	227.855
1960.79	240.394
1958.42	221.305
1956.05	262.273
1953.67	246.35
1951.3	220.973
1948.92	255.57
1946.54	268.056
1944.16	226.946
1941.78	267.788
1939.4	207.826
1937.02	214.016
1934.63	279.969
1932.25	204.37
1929.86	216.838
1927.48	232.434
1925.09	207.202
1922.7	247.89
1920.31	213.267
1917.91	257.046
1915.52	250.651
1913.13	278.709
1910.73	241.01
1908.33	272.173
1905.94	290.798
1903.54	265.649
1901.14	246.774
1898.73	280.994
1896.33	259.008
1893.93	255.759
1891.52	255.631
1889.11	274.198
1886.71	233.574
1884.3	267.697
1881.89	298.674
1879.48	264.318
1877.06	285.942
1874.65	304.437
1872.23	288.759
1869.82	319.648
1867.4	241.941
1864.98	294.524
1862.56	291.277
1860.14	309.713
1857.72	278.602
1855.29	287.743
1852.87	312.338
1850.44	284.362
1848.02	268.772
1845.59	311.866
1843.16	277.76
1840.73	277.62
1838.29	311.394
1835.86	292.748
1833.43	271.04
1830.99	320.159
1828.55	298.459
1826.11	301.384
1823.68	304.305
1821.23	304.152
1818.79	346.988
1816.35	309.983
1813.9	331.299
1811.46	331.132
1809.01	312.577
1806.56	272.601
1804.11	309.2
1801.66	339.642
1799.21	324.179
1796.76	336.242
1794.3	339.127
1791.85	345.062
1789.39	357.096
1786.93	335.561
1784.47	347.588
1782.01	319.984
1779.55	335.052
1777.09	316.616
1774.62	279.941
1772.16	298.047
1769.69	328.293
1767.22	352.433
1764.75	318.851
1762.28	294.408
1759.81	367.065
1757.34	385.071
1754.86	342.448
1752.39	339.245
1749.91	320.908
1747.43	341.927
1744.95	365.948
1742.47	356.693
1739.99	341.406
1737.51	371.43
1735.02	344.077
1732.54	383.119
1730.05	310.56
1727.56	403.824
1725.07	394.583
1722.58	370.298
1720.09	388.163
1717.6	415.033
1715.1	402.798
1712.61	378.557
1710.11	348.336
1707.61	378.172
1705.11	407.977
1702.61	389.78
1700.11	398.571
1697.6	401.363
1695.1	377.209
1692.59	332.134
1690.09	424.675
1687.58	421.469
1685.07	364.489
1682.56	418.053
1680.04	438.731
1677.53	423.592
1675.01	438.283
1672.5	461.899
1669.98	437.836
1667.46	422.727
1664.94	452.265
1662.42	481.773
1659.9	469.637
1657.37	490.193
1654.85	421.647
1652.32	448.142
1649.79	421.216
1647.26	409.141
1644.73	459.307
1642.2	429.455
1639.67	417.394
1637.13	446.767
1634.6	408.095
1632.06	437.442
1629.52	472.668
1626.98	448.805
1624.44	463.33
1621.9	460.143
1619.36	436.322
1616.81	388.952
1614.26	438.82
1611.72	444.481
1609.17	432.485
1606.62	435.203
1604.07	426.163
1601.51	443.569
1598.96	478.574
1596.41	428.441
1593.85	428.221
1591.29	510.083
1588.73	442.431
1586.17	427.56
1583.61	459.537
1581.05	444.674
1578.48	467.837
1575.91	447.139
1573.35	429.383
1570.78	464.195
1568.21	420.187
1565.64	446.218
1563.07	463.478
1560.49	445.759
1557.92	483.384
1555.34	500.598
1552.76	468.341
1550.18	462.285
1547.6	438.799
1545.02	453.095
1542.44	467.376
1539.85	530.966
1537.27	452.394
1534.68	492.738
1532.09	469.308
1529.5	477.752
1526.91	491.975
1524.32	494.614
1521.72	482.794
1519.13	488.323
1516.53	502.511
1513.94	427.202
1511.34	490.451
1508.74	501.732
1506.13	524.528
1503.53	481.049
1500.93	500.953
1498.32	515.081
1495.71	557.956
1493.1	477.179
1490.49	482.678
1487.88	528.373
1485.27	551.06
1482.66	547.906
1480.04	587.761
1477.42	613.247
1474.81	607.201
1472.19	601.161
1469.57	646.628
1466.94	663.45
1464.32	683.113
1461.69	665.618
1459.07	653.852
1456.44	727.71
1453.81	764.411
1451.18	687.043
1448.55	669.59
1445.92	717.655
1443.28	771.362
1440.65	836.393
1438.01	781.934
1435.37	753.108
1432.73	673.184
1430.09	655.8
1427.45	604.384
1424.8	635.265
1422.16	595.251
1419.51	643.103
1416.86	588.968
1414.21	622.622
1411.56	571.382
1408.91	590.874
1406.25	559.484
1403.6	632.621
1400.94	556.078
1398.29	561.43
1395.63	580.875
1392.97	583.391
1390.3	611.254
1387.64	630.643
1384.97	627.5
1382.31	607.485
1379.64	587.491
1376.97	620.898
1374.3	626.189
1371.63	634.281
1368.96	625.534
1366.28	647.636
1363.61	608.067
1360.93	627.354
1358.25	652.219
1355.57	609.911
1352.89	651.536
1350.2	645.605
1347.52	645.267
1344.83	625.386
1342.15	619.477
1339.46	630.308
1336.77	666.216
1334.08	651.936
1331.38	648.81
1328.69	734.746
1325.99	689.854
1323.3	636.668
1320.6	644.67
1317.9	616.559
1315.2	702.286
1312.49	718.564
1309.79	657.182
1307.08	717.809
1304.38	664.802
1301.67	780.731
1298.96	849.498
1296.25	813.098
1293.53	732.509
1290.82	776.328
1288.1	665.468
1285.39	681.677
1282.67	639.942
1279.95	636.849
1277.23	614.47
1274.5	630.67
1271.78	611.07
1269.05	624.503
1266.33	618.675
1263.6	618.349
1260.87	576.821
1258.14	579.262
1255.4	620.115
1252.67	564.939
1249.93	581.087
1247.2	564.343
1244.46	555.831
1241.72	610.27
1238.98	585.331
1236.23	601.425
1233.49	521.87
1230.74	584.404
1228	608.66
1225.25	564.691
1222.5	548.033
1219.74	550.468
1216.99	582.861
1214.24	579.83
1211.48	552.316
1208.72	543.865
1205.96	559.885
1203.2	532.424
1200.44	581.012
1197.68	588.845
1194.91	528.866
1192.15	582.8
1189.38	582.491
1186.61	571.351
1183.84	573.754
1181.07	570.745
1178.29	602.884
1175.52	572.841
1172.74	613.047
1169.96	566.835
1167.18	598.907
1164.4	566.233
1161.62	590.186
1158.84	614.114
1156.05	581.483
1153.26	613.462
1150.48	594.311
1147.69	567.118
1144.89	617.856
1142.1	569.199
1139.31	542.062
1136.51	587.368
1133.71	654.071
1130.91	742.136
1128.11	685.507
1125.31	636.968
1122.51	569.756
1119.7	646.984
1116.9	611.902
1114.09	608.905
1111.28	573.881
1108.47	621.595
1105.66	605.265
1102.84	623.597
1100.03	633.918
1097.21	630.918
1094.39	611.956
1091.57	632.903
1088.75	696.353
1085.93	666.761
1083.11	700.919
1080.28	607.669
1077.45	681.605
1074.62	601.718
1071.79	662.331
1068.96	630.202
1066.13	706.613
1063.29	735.331
1060.46	674.133
1057.62	631.496
1054.78	668.129
1051.94	649.296
1049.09	614.654
1046.25	606.415
1043.41	666.699
1040.56	616.3
1037.71	700.205
1034.86	626.163
1032.01	670.529
1029.15	630.747
1026.3	635.662
1023.44	651.073
1020.59	564.135
1017.73	637.262
1014.87	602.845
1012	613
1009.14	657.181
1006.27	654.211
1003.41	648.628
1000.54	603.841
997.667	632.255
994.796	611.025
991.922	555.891
989.047	612.977
986.171	641.324
983.293	630.556
980.414	614.591
977.533	622.069
974.65	645.146
971.766	701.998
968.88	810.761
965.993	955.766
963.104	1007.17
960.214	1019.6
957.322	933.477
954.429	800.802
951.534	764.107
948.637	722.274
945.739	685.661
942.839	643.914
939.938	684.92
937.035	653.552
934.131	663.526
931.225	637.363
928.317	662.809
925.408	613.475
922.497	582.229
919.585	682.333
916.671	609.907
913.756	650.73
910.839	663.231
907.92	634.61
905	695.895
902.078	667.287
899.155	656.665
896.23	676.819
893.304	691.826
890.376	678.646
887.446	721.79
884.515	652.329
881.582	662.202
878.647	702.729
875.711	681.915
872.774	663.677
869.834	696.482
866.893	713.953
863.951	739.05
861.007	690.254
858.061	702.607
855.114	702.225
852.165	737.444
849.215	655.714
846.263	673.139
843.309	743.858
840.354	705.392
837.397	715.153
834.438	676.744
831.478	683.975
828.517	708.921
825.553	693.352
822.588	649.98
819.622	705.235
816.654	687.166
813.684	691.842
810.712	706.606
807.739	670.91
804.765	660.46
801.789	665.139
798.811	659.739
795.831	634.212
792.85	598.651
789.867	668.715
786.883	663.325
783.897	720.72
780.909	667.62
777.92	682.305
774.929	669.397
771.936	636.456
768.942	678.682
765.946	630.754
762.949	690.448
759.949	700.071
756.949	697.189
753.946	664.339
750.942	681.448
747.936	696.044
744.929	655.767
741.92	695.281
738.909	692.409
735.897	669.625
732.883	694.138
729.867	708.676
726.85	666.039
723.831	675.609
720.81	717.44
717.788	731.933
714.764	729.051
711.739	713.78
708.711	653.939
705.683	698.142
702.652	710.13
699.62	657.807
696.586	672.275
693.55	728.72
690.513	750.539
687.474	725.451
684.433	705.323
681.391	741.906
678.347	694.692
675.302	718.93
672.254	679.163
669.205	735.354
666.155	700.536
663.102	773.85
660.048	768.513
656.992	721.464
653.935	657.298
650.876	696.155
647.815	739.869
644.753	729.667
641.688	765.972
638.623	750.873
635.555	679.568
632.486	701.181
629.415	734.979
626.342	751.655
623.268	782.948
620.192	755.7
617.114	777.209
614.035	764.604
610.953	778.783
607.871	756.461
604.786	739.025
601.7	809.076
598.612	750.348
595.522	788.764
592.431	885.351
589.337	821.829
586.243	843.18
583.146	825.761
580.048	755.116
576.948	795.819
573.846	841.311
570.743	778.022
567.637	777.59
564.53	847.151
561.422	769.49
558.311	838.977
555.199	790.321
552.086	809.147
548.97	796.663
545.853	803.436
542.734	798.181
539.613	860.21
536.49	823.709
533.366	801.65
530.24	791.608
527.113	786.372
523.983	776.35
520.852	833.393
517.719	797.026
514.584	794.19
511.448	834.391
508.31	795.694
505.17	766.592
502.028	785.259
498.885	873.084
495.739	786.767
492.592	807.773
489.444	850.189
486.293	806.871
483.141	853.997
479.987	867.785
476.831	850.666
473.674	885.813
470.514	873.451
467.353	846.868
464.191	860.62
461.026	876.725
457.86	895.18
454.691	885.211
451.522	936.757
448.35	879.491
445.176	864.821
442.001	939.907
438.824	958.262
435.645	910.547
432.465	952.473
429.282	907.169
426.098	899.596
422.912	896.737
419.724	957.394
416.535	926.294
413.344	878.78
410.15	878.287
406.956	938.816
403.759	903.103
400.56	935.417
397.36	890.373
394.158	948.416
390.954	919.797
387.748	886.532
384.541	883.695
381.331	939.274
378.12	875.695
374.907	933.549
371.693	905.033
368.476	932.498
365.258	934.302
362.037	936.104
358.815	875.067
355.592	930.397
352.366	908.95
349.139	882.88
345.909	896.315
342.678	972.393
339.445	899.942
336.21	973.614
332.974	970.747
329.735	984.092
326.495	916.424
323.253	932.096
320.009	952.374
316.763	970.317
313.516	1034.42
310.266	1008.45
307.015	952.527
303.762	975.039
300.507	1004.44
297.25	932.491
293.992	1010.2
290.731	991.231
287.469	974.579
284.205	1024.57
280.939	994.138
277.671	1009.64
274.401	1034.29
271.129	1061.21
267.856	1046.86
264.581	1032.53
261.304	995.335
258.025	1024.5
254.744	1053.63
251.461	1032.47
248.176	981.661
244.89	997.074
241.601	1035.27
238.311	966.313
235.019	1063.71
231.725	1006.19
228.429	1046.57
225.131	1121.01
221.832	1159.01
218.53	1067.5
215.227	1078.24
211.922	1093.5
208.615	1065.67
205.306	1126.25
201.995	1118.81
198.682	1102.33
195.367	1106.23
192.051	1148.55
188.732	1091.41
185.412	1147.24
182.089	1153.36
178.765	1173
175.439	1174.59
172.111	1207.71
168.781	1143.97
165.45	1208.58
162.116	1187.65
158.78	1247.67
155.443	1193.03
152.103	1255.22
148.762	1299.39
145.419	1240.33
142.074	1311.35
138.727	1308.36
135.378	1303.13
132.027	1297.91
128.674	1321.77
125.319	1314.3
121.962	1326.95
118.604	1308.33
115.243	1349.98
111.881	1262.23
108.517	1216.93
105.15	1153.86
101.782	1088.63
100.659	1086.2