File: Spicy-Raman/model_train_and_validate/Raman_Data/polyamide/nylon/20191120 Set2Sample5a-1_.txt
3201.26	16.8451
3199.48	8.42001
3197.7	12.6243
3195.91	58.8867
3194.13	21.0214
3192.35	63.0357
3190.56	33.6038
3188.77	29.39
3186.99	33.5733
3185.2	4.19476
3183.41	33.5429
3181.62	37.7186
3179.83	25.1343
3178.04	37.6844
3176.25	8.37051
3174.46	29.2835
3172.66	62.7219
3170.87	29.2569
3169.07	66.8426
3167.28	50.1092
3165.48	4.17387
3163.68	45.8917
3161.89	25.0205
3160.09	29.1773
3158.29	4.16629
3156.49	24.9864
3154.68	20.8125
3152.88	20.803
3151.08	29.111
3149.27	29.0978
3147.47	8.30986
3145.66	41.5304
3143.86	37.3604
3142.05	16.5971
3140.24	37.3264
3138.43	41.4549
3136.62	37.2924
3134.81	4.14171
3133	37.2584
3131.19	8.27588
3129.38	33.0884
3127.56	41.3417
3125.75	-4.13229
3123.93	37.1736
3122.12	20.6426
3120.3	45.393
3118.48	28.8733
3116.66	32.983
3114.84	8.242
3113.02	-4.11912
3111.2	32.9379
3109.38	53.4997
3107.56	65.8157
3105.73	49.3393
3103.91	20.5486
3102.08	16.4314
3100.26	16.4239
3098.43	49.2492
3096.6	36.9201
3094.77	36.9032
3092.94	20.4924
3091.11	36.8695
3089.28	16.3789
3087.45	53.2073
3085.61	49.0919
3083.78	20.4456
3081.95	57.2216
3080.11	-4.08539
3078.27	57.1692
3076.44	24.4899
3074.6	57.1169
3072.76	53.0129
3070.92	40.7605
3069.08	20.3709
3067.24	24.4339
3065.4	40.7045
3063.55	20.343
3061.71	36.6005
3059.86	52.8432
3058.02	36.567
3056.17	40.6114
3054.32	28.415
3052.48	24.3445
3050.63	40.5556
3048.78	16.2148
3046.93	44.5703
3045.08	20.2499
3043.22	28.3369
3041.37	52.6015
3039.52	16.1777
3037.66	40.4256
3035.8	24.2442
3033.95	44.4273
3032.09	48.4439
3030.23	36.3163
3028.37	48.3995
3026.51	48.3772
3024.65	44.3254
3022.79	36.2496
3020.93	48.3106
3019.06	32.1923
3017.2	20.1109
3015.33	52.2644
3013.47	48.2219
3011.6	56.233
3009.73	44.1627
3007.86	12.0388
3006	28.0777
3004.12	56.1296
3002.25	72.1334
3000.38	48.0668
2998.51	44.041
2996.63	20.0094
2994.76	52.0005
2992.88	43.9802
2991.01	83.9235
2989.13	51.9287
2987.25	35.9341
2985.37	63.8534
2983.49	31.912
2981.61	75.756
2979.73	71.7358
2977.85	67.7192
2975.97	63.7063
2974.08	43.7779
2972.2	55.6917
2970.31	107.356
2968.42	51.666
2966.54	15.8899
2964.65	79.4128
2962.76	79.3761
2960.87	95.2074
2958.98	63.4423
2957.08	67.3763
2955.19	102.999
2953.3	102.951
2951.4	91.0299
2949.51	67.2519
2947.61	86.9917
2945.71	118.57
2943.81	118.515
2941.92	118.461
2940.02	146.034
2938.12	114.406
2936.21	157.728
2934.31	118.242
2932.41	130.006
2930.5	106.319
2928.6	114.142
2926.69	114.089
2924.78	129.765
2922.88	125.775
2920.97	125.716
2919.06	164.926
2917.15	157
2915.24	184.389
2913.32	137.248
2911.41	211.655
2909.5	152.791
2907.58	156.636
2905.67	164.392
2903.75	172.14
2901.83	132.956
2899.91	179.798
2897.99	156.274
2896.07	148.391
2894.15	175.645
2892.23	183.366
2890.31	183.281
2888.38	175.4
2886.46	183.111
2884.53	171.343
2882.61	202.402
2880.68	151.731
2878.75	139.995
2876.82	178.799
2874.89	159.29
2872.96	174.749
2871.03	170.787
2869.1	135.79
2867.16	151.238
2865.23	220.938
2863.29	201.463
2861.35	147.155
2859.42	185.793
2857.48	208.92
2855.54	228.158
2853.6	220.322
2851.66	231.809
2849.72	185.361
2847.77	185.275
2845.83	131.175
2843.89	134.97
2841.94	134.907
2839.99	115.581
2838.05	96.2727
2836.1	38.4911
2834.15	88.4883
2832.2	65.3739
2830.25	34.5936
2828.3	96.0484
2826.34	23.0409
2824.39	19.1918
2822.44	34.5291
2820.48	69.0259
2818.52	34.4968
2816.57	19.156
2814.61	61.2704
2812.65	57.4142
2810.69	42.0841
2808.73	34.4163
2806.77	22.9335
2804.8	30.5637
2802.84	42.0055
2800.88	64.8872
2798.91	26.7058
2796.94	38.1333
2794.98	45.7385
2793.01	38.0976
2791.04	26.6558
2789.07	30.4496
2787.1	45.653
2785.13	41.829
2783.15	38.0085
2781.18	37.9907
2779.2	34.1757
2777.23	49.3417
2775.25	53.1123
2773.27	41.7116
2771.3	68.2233
2769.32	53.0377
2767.34	37.8663
2765.35	37.8486
2763.37	34.0477
2761.39	49.157
2759.4	37.7953
2757.42	56.6664
2755.43	33.9839
2753.45	56.6133
2751.46	49.0418
2749.47	41.4774
2747.48	56.5336
2745.49	45.2056
2743.5	33.8883
2741.51	86.5628
2739.51	48.9038
2737.52	52.6409
2735.52	56.3744
2733.53	37.5653
2731.53	63.831
2729.53	71.307
2727.53	60.0197
2725.53	41.2442
2723.53	78.7018
2721.53	67.427
2719.53	52.4185
2717.52	78.5908
2715.52	52.3692
2713.51	74.7779
2711.51	48.5828
2709.5	44.8245
2707.49	37.3362
2705.48	48.5142
2703.47	59.6816
2701.46	59.6535
2699.45	74.5317
2697.43	44.698
2695.42	78.1846
2693.4	52.0985
2691.39	48.3543
2689.37	18.589
2687.35	66.889
2685.34	44.5716
2683.32	55.6883
2681.29	85.3484
2679.27	29.6724
2677.25	33.3657
2675.23	40.761
2673.2	44.4455
2671.18	22.2123
2669.15	51.8042
2667.12	55.4782
2665.09	48.0584
2663.06	62.8159
2661.03	51.7063
2659	14.7662
2656.97	47.9676
2654.94	47.9449
2652.9	84.7855
2650.87	73.6917
2648.83	40.5112
2646.79	55.2165
2644.76	36.7935
2642.72	40.4537
2640.68	29.407
2638.64	33.0672
2636.59	36.7239
2634.55	44.0478
2632.51	51.3648
2630.46	69.6763
2628.42	18.3272
2626.37	36.637
2624.32	40.2816
2622.27	73.2045
2620.22	51.2189
2618.17	43.8811
2616.12	40.2052
2614.07	54.7993
2612.02	47.4702
2609.96	72.9964
2607.9	32.8328
2605.85	58.3417
2603.79	40.0909
2601.73	87.4294
2599.67	61.8998
2597.61	50.9521
2595.55	54.5655
2593.49	47.2677
2591.43	18.1712
2589.36	72.6504
2587.3	65.3542
2585.23	58.065
2583.16	54.4101
2581.09	32.6305
2579.02	47.1106
2576.95	50.7103
2574.88	36.2044
2572.81	65.1369
2570.74	50.6379
2568.66	50.6138
2566.59	39.7491
2564.51	14.4473
2562.43	39.7112
2560.36	72.1678
2558.28	32.46
2556.2	39.6544
2554.12	25.2226
2552.03	54.0227
2549.95	28.7984
2547.87	43.1769
2545.78	25.1745
2543.7	39.5411
2541.61	61.0798
2539.52	25.1385
2537.43	57.432
2535.34	68.168
2533.25	50.2051
2531.16	60.9342
2529.06	57.3224
2526.97	28.6475
2524.88	75.1638
2522.78	42.9302
2520.68	60.7887
2518.58	53.6115
2516.49	21.4343
2514.39	28.5655
2512.28	42.8277
2510.18	53.509
2508.08	28.5245
2505.97	28.5108
2503.87	56.9944
2501.76	71.2089
2499.66	35.5874
2497.55	53.3555
2495.44	63.9959
2493.33	14.2145
2491.22	42.6231
2489.11	39.0525
2486.99	70.9704
2484.88	56.7491
2482.76	17.7256
2480.65	74.4118
2478.53	53.1258
2476.41	60.1804
2474.29	42.4599
2472.17	70.7325
2470.05	49.489
2467.93	52.9985
2465.8	49.4415
2463.68	56.4775
2461.55	42.3378
2459.43	52.8968
2457.3	70.4951
2455.17	42.2768
2453.04	45.7778
2450.91	49.2755
2448.78	59.8058
2446.65	28.1304
2444.51	42.1753
2442.38	38.6421
2440.24	59.6908
2438.11	66.6812
2435.97	52.6177
2433.83	56.0985
2431.69	77.0983
2429.55	45.5362
2427.41	56.0175
2425.27	27.9953
2423.12	94.4386
2420.98	66.4248
2418.83	76.8758
2416.68	55.8827
2414.54	76.8017
2412.39	52.3396
2410.24	52.3143
2408.09	17.4297
2405.93	55.7482
2403.78	41.7909
2401.63	62.6562
2399.47	48.7091
2397.31	45.208
2395.16	55.6138
2393	55.5869
2390.84	55.5601
2388.68	62.4749
2386.52	58.9756
2384.35	65.882
2382.19	45.0554
2380.03	62.3542
2377.86	38.0869
2375.69	76.1371
2373.53	72.6411
2371.36	48.404
2369.19	44.9248
2367.02	51.8113
2364.84	31.0717
2362.67	62.1134
2360.5	51.7361
2358.32	55.1584
2356.14	58.5775
2353.97	41.3288
2351.79	58.5207
2349.61	61.9331
2347.43	58.464
2345.25	68.7479
2343.06	61.8431
2340.88	65.2472
2338.7	61.7831
2336.51	51.461
2334.32	58.2942
2332.14	54.8385
2329.95	78.7921
2327.76	54.7853
2325.57	58.1811
2323.37	82.0981
2321.18	47.8673
2318.99	68.3487
2316.79	64.8997
2314.59	40.9694
2312.4	64.8367
2310.2	44.3404
2308	44.3188
2305.8	81.7796
2303.6	54.4932
2301.39	57.8709
2299.19	57.8427
2296.98	57.8146
2294.78	50.988
2292.57	64.5534
2290.36	74.7097
2288.15	57.7021
2285.94	47.4962
2283.73	57.6459
2281.52	108.457
2279.31	57.5898
2277.09	101.579
2274.88	57.5337
2272.66	67.6537
2270.44	50.7155
2268.22	60.8289
2266	43.9106
2263.78	60.7696
2261.56	70.8633
2259.34	70.8287
2257.11	47.1961
2254.89	87.6071
2252.66	70.7251
2250.43	70.6905
2248.2	53.8331
2245.97	43.7181
2243.74	77.3096
2241.51	97.4296
2239.28	63.802
2237.04	57.0581
2234.81	53.6755
2232.57	33.5308
2230.33	83.786
2228.09	53.5968
2225.86	73.6595
2223.61	60.2374
2221.37	76.9323
2219.13	80.2379
2216.89	46.7825
2214.64	70.1394
2212.39	33.3834
2210.15	56.7239
2207.9	56.6962
2205.65	66.6687
2203.4	69.9678
2201.15	56.6128
2198.89	59.9136
2196.64	69.8649
2194.38	83.1318
2192.13	89.7383
2189.87	49.8301
2187.61	46.4853
2185.35	69.6937
2183.09	79.6109
2180.83	76.2563
2178.57	46.3941
2176.3	99.3671
2174.04	82.7652
2171.77	66.1796
2169.51	66.1471
2167.24	76.0318
2164.97	66.0821
2162.7	79.2595
2160.42	69.318
2158.15	122.072
2155.88	59.357
2153.6	75.8077
2151.33	95.5366
2149.05	62.5621
2146.77	72.4047
2144.49	55.9215
2142.21	92.0607
2139.93	52.5802
2137.65	65.6929
2135.36	91.9247
2133.08	52.5025
2130.79	72.1554
2128.5	88.5107
2126.21	81.9139
2123.92	52.3991
2121.63	78.5598
2119.34	78.5211
2117.05	88.2926
2114.75	120.934
2112.46	78.4049
2110.16	101.223
2107.86	97.9093
2105.57	81.5508
2103.27	91.2918
2100.96	55.3998
2098.66	87.9444
2096.36	81.3897
2094.05	87.8575
2091.75	52.0379
2089.44	91.0214
2087.13	81.2289
2084.82	68.1985
2082.51	87.6404
2080.2	103.819
2077.89	74.5828
2075.58	97.2337
2073.26	80.988
2070.95	64.7583
2068.63	61.4899
2066.31	80.8677
2063.99	93.7601
2061.67	80.7876
2059.35	106.587
2057.03	77.4792
2054.7	67.7607
2052.38	74.1773
2050.05	77.364
2047.72	93.4351
2045.4	70.8466
2043.07	96.5611
2040.73	90.0789
2038.4	80.3877
2036.07	96.4173
2033.74	86.7325
2031.4	86.6894
2029.06	96.2737
2026.73	89.8108
2024.39	64.1187
2022.05	73.6998
2019.7	105.691
2017.36	96.0346
2015.02	79.9891
2012.67	95.9391
2010.33	127.855
2007.98	111.818
2005.63	79.83
2003.28	92.5567
2000.93	98.8906
1998.58	86.0876
1996.23	89.2316
1993.87	127.41
1991.52	127.347
1989.16	101.827
1986.8	111.317
1984.44	89.0094
1982.08	88.9651
1979.72	92.0964
1977.36	104.747
1975	139.593
1972.63	104.643
1970.27	101.421
1967.9	126.713
1965.53	123.483
1963.16	104.434
1960.79	85.4031
1958.42	101.168
1956.05	107.437
1953.67	82.1168
1951.3	101.016
1948.92	119.897
1946.54	148.219
1944.16	119.777
1941.78	75.6108
1939.4	141.699
1937.02	147.923
1934.63	116.392
1932.25	100.613
1929.86	109.99
1927.48	113.076
1925.09	113.019
1922.7	112.963
1920.31	125.451
1917.91	103.445
1915.52	131.592
1913.13	115.868
1910.73	134.59
1908.33	128.265
1905.94	143.835
1903.54	131.262
1901.14	153.062
1898.73	165.474
1896.33	134.185
1893.93	159.07
1891.52	149.638
1889.11	140.215
1886.71	149.487
1884.3	121.397
1881.89	136.892
1879.48	174.139
1877.06	139.863
1874.65	164.644
1872.23	124.197
1869.82	145.859
1867.4	117.869
1864.98	139.511
1862.56	127.046
1860.14	120.788
1857.72	133.11
1855.29	142.325
1852.87	117.513
1850.44	151.454
1848.02	139.02
1845.59	151.301
1843.16	138.88
1840.73	194.334
1838.29	160.322
1835.86	147.915
1833.43	141.68
1830.99	138.53
1828.55	104.614
1826.11	141.466
1823.68	175.206
1821.23	144.395
1818.79	147.393
1816.35	171.872
1813.9	138.041
1811.46	165.566
1809.01	180.805
1806.56	134.769
1804.11	186.745
1801.66	152.992
1799.21	146.798
1796.76	152.837
1794.3	164.981
1791.85	174.058
1789.39	128.188
1786.93	167.781
1784.47	176.843
1782.01	149.326
1779.55	188.847
1777.09	179.619
1774.62	164.313
1772.16	167.271
1769.69	139.829
1767.22	173.178
1764.75	173.09
1762.28	185.143
1759.81	188.083
1757.34	172.827
1754.86	172.739
1752.39	205.97
1749.91	175.591
1747.43	172.476
1744.95	154.242
1742.47	208.575
1739.99	148.043
1737.51	147.968
1735.02	199.202
1732.54	208.151
1730.05	208.045
1727.56	186.844
1725.07	165.665
1722.58	180.633
1720.09	186.559
1717.6	213.531
1715.1	183.363
1712.61	192.283
1710.11	219.211
1707.61	222.101
1705.11	233.987
1702.61	209.881
1700.11	188.797
1697.6	200.682
1695.1	188.604
1692.59	212.446
1690.09	212.337
1687.58	209.24
1685.07	200.17
1682.56	194.096
1680.04	241.75
1677.53	220.745
1675.01	229.577
1672.5	238.4
1669.98	247.213
1667.46	247.087
1664.94	241.01
1662.42	255.756
1659.9	240.763
1657.37	261.436
1654.85	249.425
1652.32	249.298
1649.79	246.204
1647.26	228.289
1644.73	225.209
1642.2	248.788
1639.67	254.581
1637.13	236.698
1634.6	260.234
1632.06	233.5
1629.52	283.601
1626.98	262.787
1624.44	259.701
1621.9	247.769
1619.36	253.538
1616.81	218.049
1614.26	247.388
1611.72	250.205
1609.17	203.003
1606.62	226.423
1604.07	202.795
1601.51	223.253
1598.96	205.522
1596.41	240.631
1593.85	263.972
1591.29	228.658
1588.73	208.03
1586.17	292.85
1583.61	248.794
1581.05	280.847
1578.48	242.69
1575.91	213.341
1573.35	248.282
1570.78	213.121
1568.21	210.093
1565.64	236.233
1563.07	256.516
1560.49	262.211
1557.92	215.485
1555.34	224.105
1552.76	235.625
1550.18	200.614
1547.6	264.442
1545.02	241.07
1542.44	272.878
1539.85	246.624
1537.27	243.597
1534.68	237.674
1532.09	252.036
1529.5	243.219
1526.91	257.564
1524.32	245.861
1521.72	245.733
1519.13	245.606
1516.53	205.048
1513.94	236.693
1511.34	288.501
1508.74	268.167
1506.13	253.618
1503.53	270.77
1500.93	253.356
1498.32	253.224
1495.71	299.11
1493.1	313.328
1490.49	293.054
1487.88	295.774
1485.27	307.101
1482.66	306.942
1480.04	315.384
1477.42	312.355
1474.81	337.97
1472.19	397.911
1469.57	400.566
1466.94	417.516
1464.32	408.725
1461.69	445.65
1459.07	482.537
1456.44	473.725
1453.81	470.626
1451.18	481.785
1448.55	510.028
1445.92	558.176
1443.28	600.581
1440.65	571.82
1438.01	585.74
1435.37	551.332
1432.73	462.991
1430.09	448.556
1427.45	380.223
1424.8	326.14
1422.16	337.309
1419.51	359.797
1416.86	362.442
1414.21	342.442
1411.56	367.721
1408.91	342.085
1406.25	307.999
1403.6	336.08
1400.94	330.259
1398.29	330.087
1395.63	341.194
1392.97	284.65
1390.3	323.937
1387.64	337.844
1384.97	360.179
1382.31	354.366
1379.64	314.828
1376.97	370.853
1374.3	334.155
1371.63	317.141
1368.96	342.221
1366.28	328.024
1363.61	364.28
1360.93	324.88
1358.25	338.706
1355.57	360.911
1352.89	374.703
1350.2	357.738
1347.52	424.591
1344.83	374.115
1342.15	332.062
1339.46	398.823
1336.77	326.139
1334.08	345.47
1331.38	356.428
1328.69	375.723
1325.99	353.272
1323.3	383.669
1320.6	350.123
1317.9	386.044
1315.2	396.944
1312.49	416.157
1309.79	465.85
1307.08	437.891
1304.38	415.501
1301.67	506.645
1298.96	558.953
1296.25	522.706
1293.53	447.798
1290.82	422.698
1288.1	378.295
1285.39	380.856
1282.67	405.481
1279.95	314.289
1277.23	355.455
1274.5	333.236
1271.78	335.813
1269.05	338.387
1266.33	327.21
1263.6	277.57
1260.87	280.17
1258.14	299.24
1255.4	310.058
1252.67	285.212
1249.93	249.429
1247.2	301.348
1244.46	287.499
1241.72	320.187
1238.98	303.606
1236.23	270.641
1233.49	265.034
1230.74	292.202
1228	294.777
1225.25	305.533
1222.5	280.833
1219.74	245.258
1216.99	280.536
1214.24	253.165
1211.48	253.031
1208.72	282.81
1205.96	231.02
1203.2	255.346
1200.44	274.216
1197.68	282.211
1194.91	249.516
1192.15	273.78
1189.38	251.961
1186.61	262.659
1183.84	254.4
1181.07	292.135
1178.29	264.945
1175.52	297.229
1172.74	251.16
1169.96	267.222
1167.18	280.569
1164.4	275.027
1161.62	272.186
1158.84	269.348
1156.05	253.053
1153.26	277.134
1150.48	287.743
1147.69	266.088
1144.89	260.574
1142.1	265.805
1139.31	265.664
1136.51	281.615
1133.71	337.758
1130.91	375.087
1128.11	364.176
1125.31	345.248
1122.51	310.29
1119.7	339.533
1116.9	328.664
1114.09	344.512
1111.28	338.99
1108.47	304.128
1105.66	319.964
1102.84	367.762
1100.03	327.613
1097.21	367.37
1094.39	324.603
1091.57	327.089
1088.75	348.177
1085.93	334.709
1083.11	326.565
1080.28	321.083
1077.45	350.085
1074.62	336.644
1071.79	370.905
1068.96	394.538
1066.13	410.206
1063.29	457.598
1060.46	372.756
1057.62	335.565
1054.78	351.23
1051.94	314.09
1049.09	353.492
1046.25	311.117
1043.41	324.126
1040.56	345.023
1037.71	329.043
1034.86	326.236
1032.01	299.766
1029.15	291.721
1026.3	296.818
1023.44	283.532
1020.59	296.499
1017.73	296.34
1014.87	309.286
1012	277.684
1009.14	316.808
1006.27	287.853
1003.41	306.006
1000.54	274.473
997.667	321.353
994.796	284.623
991.922	274.031
989.047	279.1
986.171	291.985
983.293	297.039
980.414	335.942
977.533	346.172
974.65	424.027
971.766	527.799
968.88	776.979
965.993	901.225
963.104	1194.06
960.214	1084.46
957.322	904.954
954.429	658.265
951.534	530.99
948.637	458.217
945.739	432.096
942.839	364.626
939.938	351.506
937.035	325.484
934.131	278.836
931.225	286.426
928.317	275.955
925.408	296.427
922.497	316.877
919.585	314.13
916.671	301.093
913.756	275.21
910.839	339.327
907.92	310.882
905	285.035
902.078	295.146
899.155	259.075
896.23	351.228
893.304	368.974
890.376	355.969
887.446	355.776
884.515	324.885
881.582	304.255
878.647	339.865
875.711	301.371
872.774	326.733
869.834	336.761
866.893	318.729
863.951	313.459
861.007	300.553
858.061	302.936
855.114	320.581
852.165	317.864
849.215	322.774
846.263	294.657
843.309	330.039
840.354	294.336
837.397	294.176
834.438	291.481
831.478	276.123
828.517	291.164
825.553	316.31
822.588	313.609
819.622	272.994
816.654	260.214
813.684	262.597
810.712	249.836
807.739	269.877
804.765	214.271
801.789	234.31
798.811	241.737
795.831	216.437
792.85	264.111
789.867	221.229
786.883	276.385
783.897	223.499
780.909	228.396
777.92	235.797
774.929	263.246
771.936	250.573
768.942	247.932
765.946	237.784
762.949	262.67
759.949	272.528
756.949	257.385
753.946	244.757
750.942	242.126
747.936	229.52
744.929	234.381
741.92	246.713
738.909	246.577
735.897	263.867
732.883	251.283
729.867	248.658
726.85	243.551
723.831	270.74
720.81	273.074
717.788	260.518
714.764	233.098
711.739	240.405
708.711	195.686
705.683	245.092
702.652	269.701
699.62	229.985
696.586	261.989
693.55	251.964
690.513	197.51
687.474	241.817
684.433	217.022
681.391	273.593
678.347	251.272
675.302	209.278
672.254	287.906
669.205	226.263
666.155	250.718
663.102	253.037
660.048	238.165
656.992	238.034
653.935	215.829
650.876	237.771
647.815	281.738
644.753	247.303
641.688	247.167
638.623	251.922
635.555	227.338
632.486	241.871
629.415	258.83
626.342	266.008
623.268	314.643
620.192	248.65
617.114	265.567
614.035	287.335
610.953	279.875
607.871	267.558
604.786	264.979
601.7	293.988
598.612	296.254
595.522	320.359
592.431	329.884
589.337	320.004
586.243	348.902
583.146	336.601
580.048	319.472
576.948	297.525
573.846	292.525
570.743	304.443
567.637	301.859
564.53	275.143
561.422	296.7
558.311	308.589
555.199	293.961
552.086	317.879
548.97	303.261
545.853	293.471
542.734	233.203
539.613	269.116
536.49	273.769
533.366	252.016
530.24	285.459
527.113	294.89
523.983	287.537
520.852	273.008
517.719	277.643
514.584	291.841
511.448	270.161
508.31	315.41
505.17	250.755
502.028	276.869
498.885	295.799
495.739	300.402
492.592	302.617
489.444	259.581
486.293	271.337
483.141	280.701
479.987	271.034
476.831	278.011
473.674	299.229
470.514	263.459
467.353	308.383
464.191	291.615
461.026	343.581
457.86	343.389
454.691	331.362
451.522	302.79
448.35	392.461
445.176	380.427
442.001	335.344
438.824	372.92
435.645	375.07
432.465	391.363
429.282	431.2
426.098	405.054
422.912	397.765
419.724	343.439
416.535	333.842
413.344	373.599
410.15	354.602
406.956	293.38
403.759	349.513
400.56	342.283
397.36	328.032
394.158	337.215
390.954	318.301
387.748	355.548
384.541	327.295
381.331	331.783
378.12	317.585
374.907	291.734
371.693	298.567
368.476	328.705
365.258	330.85
362.037	302.72
358.815	304.877
355.592	334.943
352.366	309.183
349.139	339.212
345.909	304.19
342.678	336.508
339.445	306.166
336.21	324.538
332.974	317.404
329.735	324.171
326.495	319.36
323.253	328.431
320.009	362.919
316.763	378.886
313.516	344.037
310.266	341.535
307.015	343.648
303.762	368.809
300.507	331.74
297.25	377.601
293.992	340.569
290.731	374.874
287.469	358.572
284.205	342.288
280.939	385.716
277.671	376.319
274.401	387.572
271.129	375.892
267.856	380.261
264.581	370.887
261.304	370.676
258.025	429.923
254.744	420.537
251.461	370.045
248.176	401.796
244.89	401.568
241.601	399.059
238.311	401.111
235.019	421.383
231.725	432.525
228.429	466.406
225.131	470.689
221.832	465.875
218.53	449.711
215.227	460.805
211.922	460.543
208.615	476.152
205.306	498.541
201.995	502.787
198.682	477.601
195.367	466.018
192.051	472.535
188.732	449.669
185.412	451.67
182.089	546.209
178.765	464.689
175.439	502.75
172.111	484.437
168.781	540.458
165.45	546.901
162.116	533.092
158.78	557.516
155.443	577.418
152.103	592.806
148.762	637.351
145.419	603.342
142.074	661.279
138.727	658.66
135.378	651.565
132.027	686.996
128.674	666.474
125.319	690.68
121.962	708.155
118.604	747.936
115.243	787.672
111.881	729.238
108.517	693.158
105.15	663.803
101.782	598.86
100.659	656.617