File: Spicy-Raman/model_train_and_validate/Raman_Data/polyamide/nylon/20191120 Set2Sample5b-1_.txt
3201.26	37.9015
3199.48	54.7301
3197.7	29.4567
3195.91	37.8557
3194.13	46.2472
3192.35	63.0357
3190.56	21.0024
3188.77	50.3829
3186.99	50.36
3185.2	29.3633
3183.41	25.1572
3181.62	46.1006
3179.83	4.18906
3178.04	62.8073
3176.25	66.9641
3174.46	66.9337
3172.66	12.5444
3170.87	29.2569
3169.07	33.4213
3167.28	8.35153
3165.48	45.9125
3163.68	25.0318
3161.89	62.5511
3160.09	33.3454
3158.29	54.1617
3156.49	12.4932
3154.68	12.4875
3152.88	70.7303
3151.08	41.5871
3149.27	33.2546
3147.47	41.5493
3145.66	37.3774
3143.86	29.0581
3142.05	24.8956
3140.24	20.7369
3138.43	8.29097
3136.62	24.8616
3134.81	53.8423
3133	41.3983
3131.19	57.9312
3129.38	49.6327
3127.56	82.6834
3125.75	45.4552
3123.93	33.0432
3122.12	33.0282
3120.3	45.393
3118.48	37.1228
3116.66	37.1059
3114.84	78.299
3113.02	28.8338
3111.2	20.5862
3109.38	20.5768
3107.56	53.4753
3105.73	4.11161
3103.91	49.3167
3102.08	49.2942
3100.26	24.6359
3098.43	16.4164
3096.6	61.5334
3094.77	12.3011
3092.94	32.7879
3091.11	16.3864
3089.28	20.4737
3087.45	24.5572
3085.61	49.0919
3083.78	20.4456
3081.95	24.5235
3080.11	4.08539
3078.27	20.4176
3076.44	36.7348
3074.6	24.4787
3072.76	24.4675
3070.92	40.7605
3069.08	61.1128
3067.24	16.2893
3065.4	24.4227
3063.55	28.4801
3061.71	48.8007
3059.86	44.7135
3058.02	8.12601
3056.17	32.4891
3054.32	52.7706
3052.48	64.9187
3050.63	8.11112
3048.78	60.8055
3046.93	48.6221
3045.08	20.2499
3043.22	56.6738
3041.37	32.3702
3039.52	68.755
3037.66	28.2979
3035.8	64.6513
3033.95	40.3885
3032.09	52.4809
3030.23	44.3866
3028.37	48.3995
3026.51	44.3458
3024.65	20.1479
3022.79	52.3605
3020.93	48.3106
3019.06	64.3845
3017.2	60.3328
3015.33	28.1424
3013.47	8.03698
3011.6	76.3162
3009.73	56.2071
3007.86	52.1683
3006	68.1887
3004.12	16.037
3002.25	44.0815
3000.38	32.0445
2998.51	100.093
2996.63	68.032
2994.76	28.0003
2992.88	63.9711
2991.01	55.949
2989.13	51.9287
2987.25	79.8535
2985.37	59.8625
2983.49	67.8129
2981.61	43.8587
2979.73	67.7504
2977.85	95.6036
2975.97	99.5412
2974.08	79.5962
2972.2	59.6696
2970.31	119.284
2968.42	71.5375
2966.54	103.284
2964.65	87.3541
2962.76	119.064
2960.87	91.2404
2958.98	126.885
2957.08	99.0828
2955.19	110.921
2953.3	126.709
2951.4	106.861
2949.51	110.768
2947.61	130.487
2945.71	162.046
2943.81	142.218
2941.92	185.588
2940.02	122.353
2938.12	165.691
2936.21	185.331
2934.31	197.069
2932.41	181.22
2930.5	189.012
2928.6	165.309
2926.69	228.178
2924.78	180.885
2922.88	157.218
2920.97	208.218
2919.06	180.633
2917.15	223.725
2915.24	266.776
2913.32	192.147
2911.41	203.816
2909.5	238.981
2907.58	270.198
2905.67	176.134
2903.75	176.053
2901.83	207.255
2899.91	234.519
2897.99	281.292
2896.07	257.732
2894.15	238.096
2892.23	257.493
2890.31	233.975
2888.38	257.254
2886.46	225.966
2884.53	268.697
2882.61	295.819
2880.68	272.338
2878.75	225.547
2876.82	237.103
2874.89	225.337
2872.96	267.949
2871.03	225.128
2869.1	193.985
2867.16	255.942
2865.23	282.955
2863.29	220.835
2861.35	236.222
2859.42	267.078
2857.48	255.347
2855.54	282.298
2853.6	340.145
2851.66	282.035
2849.72	262.595
2847.77	239.313
2845.83	243.06
2843.89	173.533
2841.94	146.471
2839.99	115.581
2838.05	119.378
2836.1	80.8314
2834.15	96.1829
2832.2	115.366
2830.25	61.4997
2828.3	53.7871
2826.34	61.4423
2824.39	42.2219
2822.44	88.2409
2820.48	84.365
2818.52	80.4926
2816.57	65.1303
2814.61	76.588
2812.65	88.0351
2810.69	68.8649
2808.73	72.6567
2806.77	49.6893
2804.8	80.2298
2802.84	64.9176
2800.88	91.6055
2798.91	49.5964
2796.94	57.1999
2794.98	80.0424
2793.01	60.9562
2791.04	49.5037
2789.07	83.7363
2787.1	53.2618
2785.13	79.8553
2783.15	79.8179
2781.18	75.9815
2779.2	60.7567
2777.23	68.3193
2775.25	56.9061
2773.27	102.383
2771.3	102.335
2769.32	94.7102
2767.34	49.2262
2765.35	79.482
2763.37	90.794
2761.39	60.5009
2759.4	52.9135
2757.42	83.1108
2755.43	83.0718
2753.45	41.5164
2751.46	67.904
2749.47	67.8722
2747.48	86.6848
2745.49	97.9455
2743.5	105.43
2741.51	67.7448
2739.51	71.4748
2737.52	82.7214
2735.52	67.6493
2733.53	131.479
2731.53	93.8691
2729.53	93.825
2727.53	75.0247
2725.53	134.981
2723.53	104.936
2721.53	97.3945
2719.53	78.6278
2717.52	112.273
2715.52	86.0351
2713.51	97.2113
2711.51	93.4284
2709.5	89.649
2707.49	82.1396
2705.48	85.8328
2703.47	96.9826
2701.46	85.7519
2699.45	63.352
2697.43	96.8456
2695.42	74.4615
2693.4	85.5903
2691.39	104.148
2689.37	74.3562
2687.35	74.3211
2685.34	118.858
2683.32	59.4008
2681.29	81.6376
2679.27	81.599
2677.25	74.1459
2675.23	85.2275
2673.2	88.8911
2671.18	88.8491
2669.15	62.9051
2667.12	51.7797
2665.09	77.6328
2663.06	92.3764
2661.03	92.3327
2659	59.065
2656.97	92.2454
2654.94	77.4495
2652.9	70.0402
2650.87	99.4837
2648.83	51.5598
2646.79	88.3463
2644.76	80.9458
2642.72	84.5851
2640.68	62.4898
2638.64	88.1791
2636.59	106.499
2634.55	117.461
2632.51	117.405
2630.46	95.3465
2628.42	40.3198
2626.37	73.274
2624.32	102.535
2622.27	65.8841
2620.22	87.8038
2618.17	87.7621
2616.12	95.0305
2614.07	94.9854
2612.02	80.3342
2609.96	113.144
2607.9	91.2022
2605.85	72.9271
2603.79	91.1156
2601.73	76.5007
2599.67	54.6174
2597.61	98.2647
2595.55	112.769
2593.49	101.807
2591.43	105.393
2589.36	87.1804
2587.3	112.555
2585.23	94.3557
2583.16	97.9382
2581.09	65.261
2579.02	94.2211
2576.95	79.6876
2574.88	76.0292
2572.81	108.562
2570.74	54.2549
2568.66	93.9971
2566.59	57.8168
2564.51	122.802
2562.43	90.2527
2560.36	93.8181
2558.28	57.7067
2556.2	100.939
2554.12	108.097
2552.03	108.045
2549.95	115.193
2547.87	82.7558
2545.78	82.7163
2543.7	89.8662
2541.61	114.974
2539.52	100.554
2537.43	89.7376
2535.34	86.1069
2533.25	100.41
2531.16	107.531
2529.06	100.314
2526.97	107.428
2524.88	89.4807
2522.78	93.0155
2520.68	92.971
2518.58	78.6302
2516.49	67.8754
2514.39	78.555
2512.28	99.9313
2510.18	103.451
2508.08	82.0079
2505.97	71.2771
2503.87	121.113
2501.76	99.6924
2499.66	138.791
2497.55	120.939
2495.44	78.2173
2493.33	60.4117
2491.22	106.558
2489.11	117.157
2486.99	127.747
2484.88	127.686
2482.76	92.1731
2480.65	95.6724
2478.53	99.1682
2476.41	92.0406
2474.29	145.071
2472.17	127.319
2470.05	113.118
2467.93	127.196
2465.8	116.541
2463.68	109.425
2461.55	98.7881
2459.43	123.426
2457.3	116.317
2455.17	77.5074
2453.04	116.205
2450.91	95.0313
2448.78	105.54
2446.65	116.038
2444.51	119.497
2442.38	129.978
2440.24	122.893
2438.11	126.343
2435.97	133.298
2433.83	122.716
2431.69	91.1162
2429.55	161.128
2427.41	133.042
2425.27	122.479
2423.12	108.429
2420.98	115.369
2418.83	111.819
2416.68	104.78
2414.54	108.221
2412.39	115.147
2410.24	76.7277
2408.09	135.952
2405.93	108.012
2403.78	132.338
2401.63	118.351
2399.47	114.814
2397.31	128.669
2395.16	121.655
2393	111.174
2390.84	131.955
2388.68	121.479
2386.52	159.581
2384.35	121.362
2382.19	131.7
2380.03	103.924
2377.86	100.411
2375.69	121.127
2373.53	110.691
2371.36	141.755
2369.19	138.23
2367.02	134.709
2364.84	103.572
2362.67	144.931
2360.5	106.921
2358.32	120.659
2356.14	127.492
2353.97	141.207
2351.79	134.253
2349.61	127.307
2347.43	123.806
2345.25	130.621
2343.06	133.993
2340.88	106.456
2338.7	157.89
2336.51	157.814
2334.32	154.308
2332.14	133.669
2329.95	113.049
2327.76	164.356
2325.57	167.698
2323.37	157.355
2321.18	140.183
2318.99	150.367
2316.79	122.968
2314.59	153.635
2312.4	133.086
2310.2	112.556
2308	160.23
2305.8	136.299
2303.6	187.32
2301.39	156.592
2299.19	166.723
2296.98	122.431
2294.78	142.767
2292.57	122.312
2290.36	142.628
2288.15	142.558
2285.94	156.059
2283.73	152.592
2281.52	176.243
2279.31	132.118
2277.09	169.299
2274.88	145.526
2272.66	155.603
2270.44	118.336
2268.22	158.831
2266	135.109
2263.78	155.3
2261.56	168.722
2259.34	134.912
2257.11	131.475
2254.89	148.258
2252.66	171.761
2250.43	134.649
2248.2	154.77
2245.97	164.783
2243.74	171.426
2241.51	154.544
2239.28	151.11
2237.04	181.243
2234.81	140.898
2232.57	130.77
2230.33	164.22
2228.09	177.539
2225.86	170.756
2223.61	180.712
2221.37	150.52
2219.13	147.103
2216.89	187.13
2214.64	153.639
2212.39	193.624
2210.15	230.232
2207.9	156.748
2205.65	186.672
2203.4	156.595
2201.15	173.169
2198.89	176.412
2196.64	146.384
2194.38	182.89
2192.13	176.153
2189.87	176.066
2187.61	169.339
2185.35	189.169
2183.09	152.587
2180.83	212.191
2178.57	185.576
2176.3	211.983
2174.04	168.841
2171.77	231.629
2169.51	188.519
2167.24	178.509
2164.97	194.942
2162.7	188.241
2160.42	161.742
2158.15	151.765
2155.88	201.154
2153.6	151.615
2151.33	210.839
2149.05	217.321
2146.77	164.556
2144.49	171.054
2142.21	184.121
2139.93	213.607
2137.65	183.94
2135.36	196.982
2133.08	154.226
2130.79	223.026
2128.5	206.525
2126.21	176.934
2123.92	186.672
2121.63	199.673
2119.34	186.488
2117.05	189.666
2114.75	202.646
2112.46	205.813
2110.16	202.446
2107.86	189.291
2105.57	208.77
2103.27	221.709
2100.96	202.046
2098.66	231.261
2096.36	208.358
2094.05	201.747
2091.75	234.171
2089.44	169.04
2087.13	240.438
2084.82	201.348
2082.51	223.97
2080.2	217.37
2077.89	226.991
2075.58	220.396
2073.26	217.048
2070.95	220.178
2068.63	200.651
2066.31	197.317
2063.99	210.152
2061.67	239.131
2059.35	200.254
2057.03	229.209
2054.7	235.549
2052.38	238.657
2050.05	235.315
2047.72	209.423
2045.4	209.32
2043.07	218.872
2040.73	212.329
2038.4	257.241
2036.07	250.685
2033.74	212.013
2031.4	208.697
2029.06	247.103
2026.73	234.15
2024.39	214.798
2022.05	269.165
2019.7	253.017
2017.36	185.667
2015.02	246.366
2012.67	223.858
2010.33	236.532
2007.98	245.999
2005.63	271.422
2003.28	280.862
2000.93	213.731
1998.58	216.813
1996.23	248.574
1993.87	219.783
1991.52	261.061
1989.16	283.205
1986.8	225.815
1984.44	263.849
1982.08	247.831
1979.72	301.695
1977.36	301.545
1975	247.461
1972.63	282.218
1970.27	253.552
1967.9	269.265
1965.53	278.629
1963.16	272.161
1960.79	294.166
1958.42	259.243
1956.05	243.314
1953.67	287.409
1951.3	306.206
1948.92	340.76
1946.54	255.442
1944.16	264.77
1941.78	292.992
1939.4	255.059
1937.02	276.962
1934.63	308.281
1932.25	295.55
1929.86	292.259
1927.48	279.549
1925.09	273.13
1922.7	276.131
1920.31	263.448
1917.91	316.606
1915.52	269.45
1913.13	263.052
1910.73	300.48
1908.33	319.099
1905.94	300.178
1903.54	240.647
1901.14	284.258
1898.73	355.925
1896.33	296.456
1893.93	296.307
1891.52	293.04
1889.11	305.357
1886.71	252.26
1884.3	320.614
1881.89	295.563
1879.48	304.743
1877.06	341.887
1874.65	319.969
1872.23	357.068
1869.82	310.337
1867.4	353.607
1864.98	313.125
1862.56	359.448
1860.14	328.296
1857.72	352.895
1855.29	399.128
1852.87	324.708
1850.44	302.908
1848.02	333.649
1845.59	367.446
1843.16	324.054
1840.73	311.552
1838.29	369.974
1835.86	357.461
1833.43	326.48
1830.99	357.1
1828.55	363.074
1826.11	356.74
1823.68	396.519
1821.23	313.368
1818.79	337.775
1816.35	343.743
1813.9	361.975
1811.46	352.594
1809.01	373.867
1806.56	407.37
1804.11	336.752
1801.66	370.24
1799.21	431.219
1796.76	348.469
1794.3	384.955
1791.85	378.653
1789.39	372.357
1786.93	363.016
1784.47	429.911
1782.01	411.408
1779.55	420.338
1777.09	386.636
1774.62	365.141
1772.16	380.162
1769.69	401.248
1767.22	373.7
1764.75	394.767
1762.28	421.883
1759.81	436.837
1757.34	379.006
1754.86	403.058
1752.39	417.998
1749.91	405.676
1747.43	423.626
1744.95	396.191
1742.47	380.876
1739.99	416.938
1737.51	407.667
1735.02	434.623
1732.54	452.502
1730.05	413.075
1727.56	403.824
1725.07	448.8
1722.58	442.551
1720.09	445.334
1717.6	424.055
1715.1	426.845
1712.61	450.663
1710.11	438.422
1707.61	414.188
1705.11	395.978
1702.61	431.756
1700.11	401.568
1697.6	431.316
1695.1	452.052
1692.59	481.743
1690.09	493.46
1687.58	511.143
1685.07	469.056
1682.56	486.733
1680.04	480.515
1677.53	516.066
1675.01	512.821
1672.5	515.539
1669.98	542.082
1667.46	520.966
1664.94	541.528
1662.42	541.251
1659.9	552.864
1657.37	570.407
1654.85	519.636
1652.32	477.82
1649.79	513.172
1647.26	527.733
1644.73	459.307
1642.2	553.848
1639.67	500.28
1637.13	532.57
1634.6	523.426
1632.06	502.468
1629.52	522.889
1626.98	516.716
1624.44	483.988
1621.9	507.337
1619.36	507.077
1616.81	548.069
1614.26	533.063
1611.72	556.338
1609.17	550.168
1606.62	552.826
1604.07	511.395
1601.51	470.007
1598.96	522.614
1596.41	513.542
1593.85	513.278
1591.29	524.74
1588.73	495.171
1586.17	571.057
1583.61	523.931
1581.05	535.364
1578.48	488.305
1575.91	526.045
1573.35	496.565
1570.78	507.987
1568.21	525.233
1565.64	545.378
1563.07	568.417
1560.49	533.162
1557.92	538.711
1555.34	532.613
1552.76	573.064
1550.18	546.601
1547.6	534.695
1545.02	563.464
1542.44	513.823
1539.85	591.897
1537.27	530.692
1534.68	539.114
1532.09	535.938
1529.5	561.721
1526.91	584.582
1524.32	575.603
1521.72	586.869
1519.13	540.334
1516.53	597.815
1513.94	577.3
1511.34	522.186
1508.74	599.771
1506.13	599.461
1503.53	610.673
1500.93	584.445
1498.32	578.387
1495.71	589.592
1493.1	597.91
1490.49	565.997
1487.88	657.595
1485.27	671.604
1482.66	582.329
1480.04	716.782
1477.42	673.426
1474.81	670.212
1472.19	772.921
1469.57	709.574
1466.94	786.417
1464.32	806.017
1461.69	908.44
1459.07	893.692
1456.44	910.351
1453.81	944.105
1451.18	909.405
1448.55	943.124
1445.92	996.743
1443.28	1030.38
1440.65	1029.84
1438.01	1032.15
1435.37	892.362
1432.73	818.046
1430.09	837.493
1427.45	783.145
1424.8	709.001
1422.16	765.322
1419.51	705.43
1416.86	690.904
1414.21	724.505
1411.56	704.327
1408.91	661.553
1406.25	641.428
1403.6	663.687
1400.94	660.519
1398.29	677.101
1395.63	668.289
1392.97	636.939
1390.3	647.873
1387.64	692.581
1384.97	700.661
1382.31	714.357
1379.64	711.173
1376.97	713.611
1374.3	741.318
1371.63	676.38
1368.96	760.179
1366.28	745.763
1363.61	725.758
1360.93	767.388
1358.25	711.002
1355.57	747.001
1352.89	727.036
1350.2	737.835
1347.52	678.787
1344.83	720.31
1342.15	758.999
1339.46	719.556
1336.77	774.929
1334.08	752.234
1331.38	718.424
1328.69	712.481
1325.99	748.269
1323.3	772.899
1320.6	780.829
1317.9	749.869
1315.2	810.544
1312.49	810.118
1309.79	829.103
1307.08	881.325
1304.38	919.642
1301.67	980.067
1298.96	951.881
1296.25	1028.82
1293.53	912.181
1290.82	765.277
1288.1	753.829
1285.39	781.031
1282.67	722.694
1279.95	738.855
1277.23	724.688
1274.5	694.012
1271.78	721.172
1269.05	693.281
1266.33	657.17
1263.6	700.795
1260.87	705.919
1258.14	658.877
1255.4	694.2
1252.67	663.667
1249.93	696.208
1247.2	736.934
1244.46	648.926
1241.72	648.583
1238.98	667.387
1236.23	645.165
1233.49	617.501
1230.74	671.792
1228	676.896
1225.25	635.618
1222.5	632.555
1219.74	662.197
1216.99	623.716
1214.24	685.996
1211.48	666.588
1208.72	685.27
1205.96	671.318
1203.2	646.515
1200.44	646.172
1197.68	689.247
1194.91	661.76
1192.15	704.781
1189.38	644.804
1186.61	649.877
1183.84	673.89
1181.07	662.713
1178.29	673.175
1175.52	656.606
1172.74	712.971
1169.96	672.104
1167.18	682.538
1164.4	647.123
1161.62	673.729
1158.84	689.532
1156.05	689.165
1153.26	683.418
1150.48	669.608
1147.69	698.818
1144.89	639.347
1142.1	706.129
1139.31	751.373
1136.51	737.562
1133.71	812.227
1130.91	900.208
1128.11	816.718
1125.31	864.457
1122.51	802.473
1119.7	711.147
1116.9	756.193
1114.09	809.203
1111.28	763.395
1108.47	656.276
1105.66	741.25
1102.84	812.808
1100.03	793.729
1097.21	756.036
1094.39	755.633
1091.57	744.592
1088.75	789.378
1085.93	722.545
1083.11	831.014
1080.28	862.413
1077.45	792.996
1074.62	789.921
1071.79	810.693
1068.96	807.612
1066.13	950.09
1063.29	915.196
1060.46	875.051
1057.62	840.233
1054.78	739.432
1051.94	770.709
1049.09	820.418
1046.25	804.159
1043.41	803.728
1040.56	827.001
1037.71	802.866
1034.86	773.495
1032.01	804.635
1029.15	809.459
1026.3	816.905
1023.44	787.588
1020.59	750.431
1017.73	760.518
1014.87	770.594
1012	746.603
1009.14	759.293
1006.27	761.502
1003.41	792.478
1000.54	747.613
997.667	739.373
994.796	785.977
991.922	746.407
989.047	795.565
986.171	763.853
983.293	807.737
980.414	710.947
977.533	819.881
974.65	861.062
971.766	987.998
968.88	1055.03
965.993	1363.53
963.104	1567.86
960.214	1515.12
957.322	1314.65
954.429	1184.36
951.534	1090.47
948.637	960.443
945.739	846.079
942.839	871.482
939.938	811.566
937.035	831.793
934.131	810.689
931.225	787.027
928.317	760.811
925.408	765.555
922.497	775.446
919.585	767.302
916.671	810.636
913.756	776.76
910.839	791.764
907.92	842.721
905	734.413
902.078	800.744
899.155	825.961
896.23	825.514
893.304	812.255
890.376	860.472
887.446	857.446
884.515	839.074
881.582	864.186
878.647	889.271
875.711	824.939
872.774	842.359
869.834	790.877
866.893	828.695
863.951	874.117
861.007	860.907
858.061	880.805
855.114	867.604
852.165	905.276
849.215	838.704
846.263	873.81
843.309	820.021
840.354	862.71
837.397	791.233
834.438	836.425
831.478	868.902
828.517	868.429
825.553	807.224
822.588	771.377
819.622	803.817
816.654	765.483
813.684	767.591
810.712	787.361
807.739	809.631
804.765	806.669
801.789	793.631
798.811	775.572
795.831	770.115
792.85	789.817
789.867	791.9
786.883	796.492
783.897	811.124
780.909	805.661
777.92	802.712
774.929	809.795
771.936	829.398
768.942	846.474
765.946	805.963
762.949	830.539
759.949	830.084
756.949	859.616
753.946	806.697
750.942	846.194
747.936	838.246
744.929	825.32
741.92	862.248
738.909	836.868
735.897	851.345
732.883	843.414
729.867	815.599
726.85	852.43
723.831	879.285
720.81	861.424
717.788	808.848
714.764	815.843
711.739	805.481
708.711	842.194
705.683	826.877
702.652	838.794
699.62	813.603
696.586	835.4
693.55	797.887
690.513	864.108
687.474	829.087
684.433	850.826
681.391	842.963
678.347	869.597
675.302	893.739
672.254	844.032
669.205	814.054
666.155	789.025
663.102	832.81
660.048	859.359
656.992	856.431
653.935	878.032
650.876	838.328
647.815	847.665
644.753	834.954
641.688	898.12
638.623	819.357
635.555	877.572
632.486	847.77
629.415	896.137
626.342	846.833
623.268	887.829
620.192	921.466
617.114	947.757
614.035	937.492
610.953	927.239
607.871	892.672
604.786	904.333
601.7	942.707
598.612	862.05
595.522	941.662
592.431	955.694
589.337	955.165
586.243	961.904
583.146	905.674
580.048	1028.6
576.948	1006.26
573.846	988.782
570.743	898.833
567.637	980.44
564.53	965.414
561.422	928.695
558.311	901.659
555.199	944.53
552.086	939.188
548.97	921.818
545.853	892.44
542.734	956.856
539.613	992.366
536.49	922.17
533.366	993.661
530.24	933.138
527.113	980.568
523.983	924.91
520.852	974.686
517.719	923.88
514.584	978.384
511.448	1025.65
508.31	1003.58
505.17	950.479
502.028	1002.46
498.885	966.117
495.739	970.346
492.592	1003.16
489.444	962.118
486.293	980.622
483.141	868.27
479.987	1010.43
476.831	1064.52
473.674	954.684
470.514	980.258
467.353	1001.06
464.191	950.712
461.026	1002.31
457.86	1015.96
454.691	1100.6
451.522	1038.48
448.35	1106.46
445.176	1070.39
442.001	1055.62
438.824	1083.36
435.645	1089.83
432.465	1108.07
429.282	1166.36
426.098	1172.77
422.912	1075.61
419.724	1046.78
416.535	1074.41
413.344	1104.35
410.15	1052.07
406.956	1051.47
403.759	1032.12
400.56	1134.69
397.36	1110.62
394.158	1018.67
390.954	1039.16
387.748	1076
384.541	1084.75
381.331	1091.15
378.12	1076.52
374.907	1045.57
371.693	1054.32
368.476	1093.35
365.258	1032.16
362.037	1106.09
358.815	1142.71
355.592	1028.09
352.366	1067.03
349.139	1073.4
345.909	1051.89
342.678	1125.56
339.445	1136.52
336.21	1117.34
332.974	1054.15
329.735	1160.07
326.495	1089.99
323.253	1063.93
320.009	1141.92
316.763	1076.59
313.516	1094.45
310.266	1112.3
307.015	1102.44
303.762	1117.95
300.507	1131.14
297.25	1098.27
293.992	1060.83
290.731	1152.22
287.469	1089.51
284.205	1183.08
280.939	1122.71
277.671	1135.84
274.401	1123.73
271.129	1201.02
267.856	1191.18
264.581	1208.82
261.304	1187.54
258.025	1168.57
254.744	1186.19
251.461	1116.99
248.176	1237.35
244.89	1202.42
241.601	1194.9
238.311	1157.75
235.019	1182.15
231.725	1247.49
228.429	1299.11
225.131	1159.67
221.832	1181.73
218.53	1233.3
215.227	1232.6
211.922	1206.94
208.615	1201.72
205.306	1216.89
201.995	1313.59
198.682	1306.05
195.367	1298.52
192.051	1232.21
188.732	1310.59
185.412	1233.06
182.089	1284.27
178.765	1306.09
175.439	1323.38
172.111	1336.15
168.781	1391.68
165.45	1372.88
162.116	1435.08
158.78	1375.81
155.443	1381.76
152.103	1428.12
148.762	1384.67
145.419	1424.25
142.074	1454.81
138.727	1456.22
135.378	1428.52
132.027	1450.08
128.674	1478.32
125.319	1448.42
121.962	1572.68
118.604	1569.55
115.243	1497.25
111.881	1449.56
108.517	1455.41
105.15	1405.57
101.782	1297.9
100.659	1302.1