File: Spicy-Raman/model_train_and_validate/Raman_Data/polyamide/nylon/Set1Sample2_10 - 1_.txt
3201.19	4.21121
3199.41	-12.6298
3197.63	8.41606
3195.85	4.20613
3194.06	4.20422
3192.28	4.20231
3190.49	0
3188.71	8.39701
3186.92	-8.3932
3185.13	25.1682
3183.34	12.5784
3181.55	-4.19089
3179.76	-8.37798
3177.97	12.5613
3176.18	12.5556
3174.39	33.4663
3172.6	8.36278
3170.8	-8.35898
3169.01	4.17759
3167.21	8.35139
3165.41	4.1738
3163.62	-12.5157
3161.82	29.1901
3160.02	33.3449
3158.22	4.16622
3156.42	8.32865
3154.62	8.32486
3152.81	-4.16054
3151.01	8.31729
3149.21	-8.31351
3147.4	0
3145.6	12.4589
3143.79	0
3141.98	12.4476
3140.17	4.14731
3138.37	16.5817
3136.56	4.14353
3134.75	4.14165
3132.93	12.4193
3131.12	16.5515
3129.31	28.9519
3127.49	12.4023
3125.68	20.6611
3123.86	12.391
3122.05	0
3120.23	8.25315
3118.41	12.3741
3116.59	-4.12281
3114.77	20.6047
3112.95	-8.2381
3111.13	16.4687
3109.31	28.8071
3107.49	8.22683
3105.66	16.4462
3103.84	24.658
3102.01	16.4311
3100.19	0
3098.36	8.20807
3096.53	12.3065
3094.7	32.8023
3092.87	-8.19683
3091.04	16.3862
3089.21	-20.4734
3087.38	20.464
3085.55	-4.09093
3083.71	4.08906
3081.88	8.17438
3080.04	4.08532
3078.21	-8.1669
3076.37	8.16317
3074.53	16.3189
3072.69	16.3114
3070.85	8.15197
3069.01	4.07412
3067.17	0
3065.33	40.7039
3063.48	16.2741
3061.64	4.06666
3059.79	8.1296
3057.95	4.06294
3056.1	8.12215
3054.26	36.5329
3052.41	4.05735
3050.56	12.1665
3048.71	24.3218
3046.86	20.2589
3045.01	0
3043.15	32.3845
3041.3	0
3039.45	0
3037.59	16.17
3035.73	-4.04064
3033.88	0
3032.02	-8.07386
3030.16	4.03508
3028.3	12.0997
3026.44	8.06274
3024.58	0
3022.72	36.249
3020.86	20.1291
3018.99	24.1438
3017.13	0
3015.26	20.1014
3013.4	8.03685
3011.53	20.0829
3009.66	4.01473
3007.79	0
3005.92	4.01104
3004.05	0
3002.18	8.01469
3000.31	12.0165
2998.44	12.011
2996.56	12.0054
2994.69	3.99997
2992.81	19.9907
2990.94	3.99629
2989.06	15.9778
2987.18	-15.9704
2985.3	15.9631
2983.42	23.9336
2981.54	23.9226
2979.66	23.9115
2977.78	11.9503
2975.89	11.9447
2974.01	27.8582
2972.13	15.9116
2970.24	7.95215
2968.35	15.897
2966.46	15.8896
2964.58	35.7352
2962.69	-11.9062
2960.8	3.96691
2958.91	23.7905
2957.01	15.853
2955.12	15.8457
2953.23	43.5555
2951.33	11.8733
2949.44	3.95593
2947.54	15.8164
2945.64	11.8568
2943.74	-3.95045
2941.84	51.3321
2939.94	27.6276
2938.04	15.7799
2936.14	47.3177
2934.24	35.4719
2932.34	15.758
2930.43	11.813
2928.53	15.7434
2926.62	0
2924.71	35.3899
2922.81	7.86078
2920.9	23.5714
2918.99	11.7803
2917.08	3.92493
2915.16	0
2913.25	27.4491
2911.34	19.5974
2909.43	27.4236
2907.51	23.4951
2905.59	0
2903.68	27.3855
2901.76	-7.8208
2899.84	7.81717
2897.92	23.4406
2896	15.6198
2894.08	7.8063
2892.16	31.2107
2890.24	15.5981
2888.31	23.3863
2886.39	23.3754
2884.46	27.2587
2882.53	23.3537
2880.61	27.2334
2878.68	-3.88867
2876.75	0
2874.82	31.0805
2872.89	11.6498
2870.96	7.7629
2869.02	7.75929
2867.09	0
2865.15	-11.6281
2863.22	58.1135
2861.28	27.107
2859.35	27.0944
2857.41	19.3441
2855.47	7.73405
2853.53	3.86523
2851.59	7.72685
2849.64	19.3081
2847.7	34.7385
2845.76	27.0062
2843.81	11.5687
2841.87	34.6899
2839.92	23.1158
2837.97	26.9559
2836.03	-15.3962
2834.08	19.2363
2832.13	0
2830.18	3.84367
2828.22	15.3675
2826.27	11.5202
2824.32	19.1914
2822.36	3.8365
2820.41	11.5041
2818.45	19.1646
2816.49	-3.83113
2814.54	22.976
2812.58	11.4827
2810.62	38.2576
2808.66	11.4719
2806.69	15.2888
2804.73	11.4612
2802.77	34.3675
2800.8	-11.4505
2798.84	22.8903
2796.87	7.62653
2794.9	0
2792.93	22.8582
2790.96	7.61583
2788.99	11.4184
2787.02	7.6087
2785.05	-3.80257
2783.08	22.8047
2781.1	37.9901
2779.13	0
2777.15	30.3636
2775.18	30.3494
2773.2	7.5838
2771.22	11.3704
2769.24	18.9417
2767.26	11.3597
2765.28	7.56959
2763.3	26.4811
2761.31	22.6875
2759.33	3.77947
2757.35	11.3331
2755.36	7.55185
2753.37	3.77415
2751.39	30.1791
2749.4	3.77061
2747.41	7.53769
2745.42	11.3012
2743.42	18.8265
2741.43	18.8177
2739.44	22.5706
2737.44	0
2735.45	3.75823
2733.45	11.2694
2731.46	11.2641
2729.46	15.0117
2727.46	0
2725.46	26.2459
2723.46	26.2335
2721.46	18.7294
2719.45	0
2717.45	29.9389
2715.44	7.48119
2713.44	14.9553
2711.43	3.73707
2709.42	0
2707.42	11.2007
2705.41	-3.7318
2703.4	22.3802
2701.38	29.8262
2699.37	-3.72652
2697.36	40.9724
2695.34	3.72301
2693.33	-3.72126
2691.31	14.878
2689.3	26.0242
2687.28	3.71599
2685.26	7.42848
2683.24	11.1375
2681.22	-7.42147
2679.2	-3.70898
2677.17	-7.41447
2675.15	11.1165
2673.13	48.1485
2671.1	0
2669.07	7.40047
2667.05	11.0955
2665.02	11.0902
2662.99	-3.69499
2660.96	18.4662
2658.93	7.383
2656.89	33.2078
2654.86	3.68801
2652.83	3.68627
2650.79	18.4226
2648.76	0
2646.72	18.4052
2644.68	14.7172
2642.64	11.0327
2640.6	33.0823
2638.56	33.0666
2636.52	18.3616
2634.47	7.34118
2632.43	51.3639
2630.39	25.6698
2628.34	21.9922
2626.29	18.3182
2624.25	21.9714
2622.2	32.9415
2620.15	21.9506
2618.1	25.5969
2616.04	21.9298
2613.99	25.5726
2611.94	7.30298
2609.88	7.29952
2607.83	29.1842
2605.77	14.5852
2603.71	18.2228
2601.66	21.857
2599.6	-3.6411
2597.54	18.1969
2595.47	7.27528
2593.41	18.1796
2591.35	3.63419
2589.28	3.63246
2587.22	18.1537
2585.15	29.032
2583.09	18.1364
2581.02	21.7533
2578.95	21.743
2576.88	0
2574.81	7.24076
2572.73	7.23731
2570.66	21.7016
2568.59	25.3065
2566.51	36.1349
2564.43	18.0588
2562.36	32.4904
2560.28	21.65
2558.2	18.033
2556.12	3.60489
2554.04	39.6349
2551.96	46.8189
2549.87	7.19947
2547.79	21.5881
2545.7	46.7519
2543.62	10.7838
2541.53	21.5572
2539.44	0
2537.35	25.1261
2535.26	-10.7632
2533.17	25.1021
2531.08	17.9215
2528.99	32.2433
2526.89	21.4853
2524.8	28.6333
2522.7	14.3098
2520.6	17.8787
2518.51	14.2962
2516.41	10.717
2514.31	0
2512.21	14.2757
2510.1	14.2688
2508	3.5655
2505.9	7.12759
2503.79	35.6209
2501.69	39.1642
2499.58	14.2347
2497.47	24.8988
2495.36	-7.11054
2493.25	31.9821
2491.14	24.8631
2489.03	7.10033
2486.91	24.8392
2484.8	14.187
2482.68	10.6352
2480.57	14.1734
2478.45	17.7083
2476.33	21.2398
2474.21	24.7678
2472.09	31.8291
2469.97	17.6743
2467.85	17.6659
2465.73	28.2518
2463.6	17.6489
2461.48	21.1685
2459.35	7.05278
2457.22	17.6235
2455.09	14.092
2452.96	10.5639
2450.83	21.1177
2448.7	24.6255
2446.57	7.03247
2444.43	17.5727
2442.3	38.6414
2440.16	21.067
2438.03	14.0379
2435.89	17.5389
2433.75	21.0366
2431.61	3.50441
2429.47	3.50272
2427.33	42.0124
2425.19	10.4981
2423.04	27.9813
2420.9	41.9518
2418.75	38.4373
2416.6	20.9557
2414.46	27.9274
2412.31	48.8494
2410.16	20.9254
2408.01	34.8588
2405.85	0
2403.7	17.4126
2401.55	17.4042
2399.39	38.2708
2397.23	24.3424
2395.08	13.9032
2392.92	10.4224
2390.76	52.0867
2388.6	13.8831
2386.44	10.4073
2384.27	20.8045
2382.11	20.7944
2379.95	27.7125
2377.78	20.7743
2375.61	31.1464
2373.44	13.8362
2371.28	27.659
2369.11	27.6456
2366.93	13.8161
2364.76	27.6188
2362.59	13.8027
2360.42	37.9391
2358.24	-3.44734
2356.06	17.2284
2353.89	30.996
2351.71	13.7693
2349.53	37.8474
2347.35	17.195
2345.17	27.4987
2342.98	27.4854
2340.8	3.434
2338.62	17.1617
2336.43	34.3067
2334.24	20.5741
2332.05	37.7008
2329.87	27.4055
2327.68	34.2402
2325.48	30.8012
2323.29	20.5242
2321.1	6.83807
2318.9	30.7564
2316.71	23.91
2314.51	20.4843
2312.32	54.5984
2310.12	13.643
2307.92	10.2272
2305.72	27.2594
2303.51	6.81153
2301.31	30.637
2299.11	6.80491
2296.9	34.008
2294.7	30.5923
2292.49	44.1674
2290.28	40.75
2288.07	33.9418
2285.86	37.3178
2283.65	33.9088
2281.44	40.6707
2279.22	30.4882
2277.01	33.8592
2274.79	10.1528
2272.58	23.6784
2270.36	47.3337
2268.14	33.7933
2265.92	33.7768
2263.7	23.6322
2261.48	33.7438
2259.25	30.3546
2257.03	16.8555
2254.8	37.0639
2252.58	20.2068
2250.35	33.6616
2248.12	47.1032
2245.89	30.2658
2243.66	36.9735
2241.43	6.71917
2239.19	40.2953
2236.96	26.8504
2234.72	26.8373
2232.49	33.5302
2230.25	26.811
2228.01	53.5959
2225.77	26.7848
2223.53	20.0788
2221.29	16.7241
2219.05	23.4023
2216.8	16.7078
2214.56	26.7193
2212.31	23.368
2210.06	16.6832
2207.81	26.6801
2205.57	33.3338
2203.31	23.3222
2201.06	43.2914
2198.81	29.9563
2196.56	43.249
2194.3	36.5773
2192.04	16.6179
2189.79	33.2195
2187.53	56.4455
2185.27	39.8243
2183.01	33.1706
2180.75	53.0469
2178.48	9.94142
2176.22	29.8096
2173.95	52.9688
2171.69	46.3249
2169.42	36.3803
2167.15	23.1397
2164.88	29.7364
2162.61	36.3267
2160.34	33.008
2158.07	46.1885
2155.79	29.678
2153.52	23.0715
2151.24	6.58862
2148.96	39.5122
2146.69	52.6571
2144.41	46.0522
2142.13	39.4539
2139.84	32.8621
2137.56	29.5613
2135.28	59.0934
2132.99	42.6576
2130.71	49.196
2128.42	32.7812
2126.13	29.4885
2123.84	36.0237
2121.55	22.9129
2119.26	29.4449
2116.96	16.3502
2114.67	52.2948
2112.37	42.4686
2110.08	29.3868
2107.78	48.9538
2105.48	48.9296
2103.18	45.6451
2100.88	35.8463
2098.58	29.3143
2096.27	32.5553
2093.97	45.5549
2091.66	52.037
2089.36	35.7578
2087.05	42.2383
2084.74	22.7324
2082.43	58.4259
2080.12	35.6871
2077.81	45.3974
2075.49	48.616
2073.18	29.1552
2070.86	25.9029
2068.54	32.3625
2066.23	51.7544
2063.91	61.4279
2061.59	32.3145
2059.26	41.988
2056.94	64.5649
2054.62	45.173
2052.29	48.3756
2049.97	41.9048
2047.64	45.1058
2045.31	25.762
2042.98	35.4051
2040.65	41.8216
2038.32	38.5854
2035.98	35.3524
2033.65	44.9716
2031.31	70.6346
2028.98	67.3904
2026.64	32.0747
2024.3	44.8823
2021.96	41.6557
2019.62	32.0269
2017.28	22.4077
2014.93	38.3941
2012.59	60.7604
2010.24	38.3559
2007.89	38.3368
2005.55	44.704
2003.2	41.4902
2000.84	66.9892
1998.49	54.2024
1996.14	50.9886
1993.79	70.0744
1991.43	44.5706
1989.07	47.7304
1986.72	44.5261
1984.36	44.5039
1982	57.1908
1979.64	38.1082
1977.27	53.9597
1974.91	41.2427
1972.54	38.0512
1970.18	47.5402
1967.81	66.5231
1965.44	15.8309
1963.07	47.4691
1960.7	44.2823
1958.33	44.2602
1955.96	44.2381
1953.58	50.5325
1951.21	69.4475
1948.83	47.3269
1946.45	66.2245
1944.07	44.1276
1941.69	63.0079
1939.31	56.6787
1936.93	53.5031
1934.55	56.622
1932.16	56.5937
1929.77	62.8504
1927.39	69.1008
1925	34.5331
1922.61	43.9292
1920.22	53.3158
1917.83	43.8852
1915.43	53.2624
1913.04	72.0248
1910.64	75.1186
1908.24	28.1553
1905.85	84.4236
1903.45	40.628
1901.05	74.9679
1898.64	53.0756
1896.24	46.8079
1893.84	46.7844
1891.43	43.6435
1889.03	65.4324
1886.62	68.5138
1884.21	59.1413
1881.8	71.5561
1879.39	40.4244
1876.97	83.9162
1874.56	65.2353
1872.14	99.3562
1869.73	77.583
1867.31	68.2387
1864.89	80.6051
1862.47	80.5646
1860.05	77.4269
1857.63	65.0059
1855.2	58.7852
1852.78	64.9404
1850.35	77.271
1847.93	71.0535
1845.5	86.4564
1843.07	52.4649
1840.64	83.2846
1838.2	73.9934
1835.77	61.6301
1833.34	64.6789
1830.9	80.0383
1828.46	89.2284
1826.02	86.1081
1823.59	79.9171
1821.14	70.6602
1818.7	61.4126
1816.26	76.727
1813.81	79.7558
1811.37	52.1216
1808.92	79.6752
1806.47	61.2576
1804.02	58.1653
1801.57	67.3152
1799.12	100.922
1796.67	82.5306
1794.21	76.3785
1791.76	70.2327
1789.3	76.3012
1786.84	67.1111
1784.38	73.175
1781.92	91.4224
1779.46	82.2385
1777	79.1525
1774.53	82.1552
1772.07	79.0723
1769.6	85.1116
1767.13	72.9158
1764.66	88.0619
1762.19	75.8769
1759.72	75.8384
1757.25	112.184
1754.77	69.7005
1752.3	96.9254
1749.82	102.931
1747.34	99.8529
1744.86	90.7292
1742.38	102.774
1739.9	99.7007
1737.42	69.4531
1734.93	78.4723
1732.45	96.5321
1729.96	102.513
1727.47	75.339
1724.98	102.409
1722.49	93.3254
1720	78.233
1717.5	99.2452
1715.01	105.207
1712.51	87.1267
1710.02	99.0937
1707.52	75.0327
1705.02	92.9932
1702.52	92.9458
1700.01	107.882
1697.51	83.8655
1695.01	86.8163
1692.5	107.717
1689.99	95.6996
1687.48	101.629
1684.97	95.602
1682.46	116.455
1679.95	101.473
1677.44	107.388
1674.92	86.4625
1672.41	95.3582
1669.89	98.2878
1667.37	113.122
1664.85	80.3352
1662.33	110.033
1659.8	83.2254
1657.28	112.891
1654.75	89.0788
1652.23	115.743
1649.7	124.583
1647.17	115.625
1644.64	121.492
1642.11	109.583
1639.57	133.208
1637.04	127.223
1634.5	79.8432
1631.97	115.27
1629.43	106.348
1626.89	103.341
1624.35	97.3861
1621.81	106.185
1619.26	132.663
1616.72	109.023
1614.17	94.2414
1611.62	114.798
1609.07	123.565
1606.52	114.68
1603.97	94.048
1601.42	105.75
1598.87	99.8234
1596.31	99.7721
1593.75	120.252
1591.2	82.0808
1588.64	108.408
1586.08	117.138
1583.51	108.297
1580.95	119.943
1578.39	122.805
1575.82	111.052
1573.25	105.153
1570.68	102.179
1568.11	110.881
1565.54	113.74
1562.97	107.851
1560.4	99.0557
1557.82	99.0046
1555.25	96.0432
1552.67	119.265
1550.09	127.926
1547.51	127.86
1544.93	124.889
1542.34	142.242
1539.76	107.352
1537.17	139.195
1534.59	115.936
1532	115.876
1529.41	138.98
1526.82	101.287
1524.22	112.805
1521.63	138.765
1519.03	121.356
1516.44	129.957
1513.84	135.663
1511.24	103.858
1508.64	135.523
1506.04	126.807
1503.43	141.143
1500.83	129.554
1498.22	115.1
1495.62	132.296
1493.01	97.7336
1490.4	137.905
1487.79	114.862
1485.17	126.282
1482.56	131.954
1479.94	123.284
1477.33	146.145
1474.71	143.205
1472.09	117.367
1469.47	140.195
1466.85	154.421
1464.22	140.05
1461.6	142.834
1458.97	137.049
1456.34	122.71
1453.71	154.02
1451.08	142.537
1448.45	168.107
1445.82	150.933
1443.18	162.239
1440.55	162.155
1437.91	153.541
1435.27	164.828
1432.63	130.658
1429.99	161.818
1427.35	144.709
1424.7	150.305
1422.06	136.055
1419.41	150.149
1416.76	169.891
1414.11	178.293
1411.46	158.4
1408.81	169.626
1406.16	155.409
1403.5	160.977
1400.85	146.779
1398.19	143.881
1395.53	163.544
1392.87	157.823
1390.2	163.374
1387.54	168.919
1384.88	182.9
1382.21	196.866
1379.54	179.898
1376.87	157.329
1374.2	190.942
1371.53	193.649
1368.86	151.472
1366.18	168.214
1363.51	168.126
1360.83	184.842
1358.15	209.938
1355.47	198.637
1352.79	218.107
1350.11	170.481
1347.42	178.772
1344.73	161.927
1342.05	173.004
1339.36	150.602
1336.67	189.547
1333.98	178.304
1331.28	183.78
1328.59	203.165
1325.89	197.495
1323.2	158.469
1320.5	175.058
1317.8	161.08
1315.1	152.668
1312.39	138.716
1309.69	138.643
1306.98	163.513
1304.28	160.657
1301.57	196.563
1298.86	177.091
1296.15	193.591
1293.43	223.895
1290.72	187.862
1288	226.421
1285.29	193.184
1282.57	171.016
1279.85	146.114
1277.13	203.901
1274.4	170.746
1271.68	151.388
1268.95	170.566
1266.23	173.226
1263.5	159.394
1260.77	167.55
1258.04	137.263
1255.3	145.423
1252.57	164.542
1249.83	145.269
1247.1	156.15
1244.36	150.592
1241.62	125.883
1238.88	158.638
1236.13	136.685
1233.39	147.542
1230.64	120.156
1227.89	125.551
1225.15	128.212
1222.4	144.504
1219.64	141.702
1216.89	147.074
1214.14	141.552
1211.38	144.198
1208.62	133.245
1205.86	119.585
1203.1	157.551
1200.34	135.748
1197.58	103.114
1194.81	146.452
1192.05	124.69
1189.28	119.205
1186.51	129.973
1183.74	162.38
1180.97	137.95
1178.19	116.249
1175.42	156.718
1172.64	137.73
1169.86	143.056
1167.08	118.7
1164.3	137.511
1161.52	177.861
1158.73	131.978
1155.95	185.748
1153.16	123.766
1150.37	166.727
1147.58	153.2
1144.79	166.549
1142	158.406
1139.2	169.056
1136.41	139.464
1133.61	174.237
1130.81	158.069
1128.01	168.696
1125.21	173.959
1122.41	181.891
1119.6	176.447
1116.8	128.257
1113.99	176.259
1111.18	192.18
1108.37	149.393
1105.55	173.311
1102.74	181.213
1099.93	165.135
1097.11	141.089
1094.29	162.298
1091.47	154.234
1088.65	178.072
1085.83	170.007
1083	135.402
1080.18	169.826
1077.35	172.387
1074.52	143.137
1071.69	145.71
1068.86	153.576
1066.02	150.847
1063.19	166.637
1060.35	169.191
1057.51	147.963
1054.67	145.243
1051.83	155.722
1048.99	168.829
1046.15	176.648
1043.3	163.378
1040.45	165.924
1037.6	184.261
1034.75	178.9
1031.9	128.844
1029.05	149.8
1026.19	141.839
1023.34	147.014
1020.48	157.43
1017.62	152.101
1014.76	152.019
1011.9	146.698
1009.03	128.292
1006.17	143.924
1003.3	151.693
1000.43	130.699
997.562	159.367
994.69	159.281
991.817	138.318
988.942	172.152
986.066	156.417
983.188	148.517
980.308	166.666
977.427	161.37
974.545	179.493
971.66	192.396
968.775	215.679
965.887	267.506
962.999	353.021
960.108	350.236
957.216	357.826
954.323	235.83
951.428	222.752
948.531	194.156
945.633	170.765
942.733	162.915
939.832	173.165
936.929	149.823
934.024	131.67
931.118	149.661
928.211	152.159
925.302	128.879
922.391	164.876
919.478	182.81
916.565	120.95
913.649	156.892
910.732	149.096
907.813	172.138
904.893	154.07
901.971	164.252
899.048	151.338
896.123	138.438
893.196	153.736
890.268	161.335
887.339	145.891
884.407	176.509
881.474	173.857
878.54	168.652
875.604	163.452
872.666	176.126
869.727	155.621
866.786	183.584
863.843	180.936
860.899	193.573
857.953	168.012
855.006	203.54
852.057	203.429
849.107	205.86
846.155	193.047
843.201	210.713
840.246	180.151
837.289	182.589
834.33	179.955
831.37	162.124
828.408	192.418
825.445	167.009
822.48	156.801
819.513	166.827
816.545	143.999
813.575	136.346
810.604	133.748
807.631	151.33
804.656	151.248
801.68	125.971
798.702	118.348
795.722	151
792.741	133.311
789.758	143.293
786.773	150.753
783.787	130.581
780.8	145.568
777.81	117.896
774.819	137.888
771.827	147.835
768.832	145.25
765.836	135.159
762.839	150.094
759.84	165.014
756.839	157.427
753.836	147.351
750.832	137.285
747.826	129.726
744.819	154.589
741.81	159.488
738.799	151.929
735.787	146.867
732.773	136.835
729.757	149.192
726.74	144.14
723.721	158.964
720.7	126.605
717.678	166.232
714.654	163.661
711.628	166.05
708.601	138.712
705.572	148.538
702.541	123.714
699.509	153.32
696.475	158.179
693.439	158.092
690.402	158.005
687.363	162.853
684.322	150.433
681.28	170.068
678.236	167.511
675.19	147.723
672.143	135.338
669.094	184.45
666.043	140.105
662.991	174.42
659.936	169.413
656.881	174.228
653.823	156.964
650.764	159.328
647.703	186.189
644.641	176.292
641.576	163.959
638.511	134.519
635.443	144.222
632.374	144.142
629.303	158.713
626.23	175.708
623.155	168.294
620.079	173.076
617.002	163.235
613.922	182.625
610.841	165.488
607.758	167.829
604.673	177.46
601.587	145.777
598.499	186.976
595.409	196.58
592.318	198.897
589.224	176.969
586.129	159.91
583.033	198.566
579.935	232.339
576.834	181.414
573.733	176.478
570.629	186.045
567.524	166.623
564.417	152.05
561.308	154.377
558.198	190.454
555.086	175.891
551.972	180.61
548.856	129.967
545.739	168.382
542.62	170.692
539.499	151.375
536.376	175.305
533.252	172.807
530.126	158.319
526.998	170.218
523.869	167.727
520.738	186.791
517.605	169.933
514.47	133.957
511.333	141.055
508.195	186.375
505.055	181.495
501.913	179.007
498.77	166.98
495.625	138.278
492.478	185.856
489.329	150.03
486.178	171.368
483.026	161.757
479.872	173.554
476.716	173.457
473.558	159.111
470.399	201.744
467.238	168.421
464.075	168.327
460.91	196.667
457.744	170.507
454.576	196.447
451.406	217.626
448.234	165.492
445.061	153.585
441.885	181.838
438.708	181.736
435.529	195.787
432.349	183.89
429.166	190.855
425.982	221.362
422.796	164.752
419.608	183.477
416.419	188.076
413.227	183.271
410.034	183.168
406.839	187.76
403.642	173.58
400.444	189.893
397.243	196.815
394.041	201.388
390.837	156.807
387.631	182.449
384.424	177.671
381.214	172.898
378.003	179.806
374.79	179.705
371.575	179.603
368.359	198.152
365.14	181.731
361.92	200.257
358.698	174.544
355.474	183.75
352.248	181.322
349.021	197.483
345.791	190.405
342.56	187.977
339.327	176.274
336.092	192.401
332.856	178.392
329.617	169.029
326.377	192.075
323.135	198.905
319.891	189.546
316.645	205.611
313.397	182.405
310.148	200.763
306.897	207.568
303.643	175.181
300.388	191.208
297.132	191.099
293.873	184.088
290.612	181.684
287.35	197.67
284.086	206.747
280.82	220.405
277.552	215.691
274.282	204.102
271.01	203.986
267.737	196.999
264.461	203.755
261.184	212.792
257.905	185.229
254.624	223.977
251.341	221.566
248.057	239.703
244.77	232.722
241.482	218.908
238.191	232.458
234.899	261.935
231.605	236.746
228.309	243.437
225.011	236.477
221.712	243.159
218.41	238.479
215.107	256.502
211.801	240.476
208.494	265.279
205.185	262.862
201.874	262.712
198.561	282.934
195.246	255.626
191.93	287.133
188.611	225.96
185.291	232.606
181.968	236.987
178.644	236.852
175.318	279.551
171.99	265.872
168.66	294.994
165.328	240.812
161.994	274.413
158.659	269.761
155.321	289.827
151.982	255.979
148.64	280.518
145.297	307.272
141.952	322.787
138.605	360.688
135.256	340.33
131.905	364.75
128.552	360.068
125.197	366.567
121.84	422.204
118.482	426.427
115.121	475.271
111.758	434.858
108.394	421.236
105.028	412.084
101.659	382.907
100.536	402.865