File: Spicy-Raman/model_train_and_validate/Raman_Data/polyamide/nylon/Set1Sample2_3 - 1_.txt
3201.19	16.8448
3199.41	4.20994
3197.63	8.41606
3195.85	16.8245
3194.06	8.40844
3192.28	21.0116
3190.49	-4.20041
3188.71	20.9925
3186.92	25.1796
3185.13	-20.9735
3183.34	8.38559
3181.55	12.5727
3179.76	12.567
3177.97	16.7484
3176.18	16.7408
3174.39	20.9164
3172.6	37.6325
3170.8	20.8975
3169.01	33.4207
3167.21	8.35139
3165.41	12.5214
3163.62	33.3752
3161.82	12.51
3160.02	12.5043
3158.22	12.4987
3156.42	-8.32865
3154.62	24.9746
3152.81	16.6422
3151.01	20.7932
3149.21	24.9405
3147.4	12.4646
3145.6	4.15297
3143.79	12.4533
3141.98	41.492
3140.17	4.14731
3138.37	12.4363
3136.56	20.7177
3134.75	12.4249
3132.93	8.27952
3131.12	20.6894
3129.31	12.408
3127.49	12.4023
3125.68	-4.13222
3123.86	-4.13034
3122.05	4.12846
3120.23	0
3118.41	-8.24938
3116.59	20.6141
3114.77	53.5721
3112.95	12.3572
3111.13	12.3515
3109.31	20.5765
3107.49	-4.11342
3105.66	24.6692
3103.84	24.658
3102.01	4.10779
3100.19	28.7414
3098.36	8.20807
3096.53	24.613
3094.7	24.6017
3092.87	16.3937
3091.04	24.5793
3089.21	12.284
3087.38	4.0928
3085.55	40.9093
3083.71	12.2672
3081.88	8.17438
3080.04	4.08532
3078.21	8.1669
3076.37	12.2447
3074.53	0
3072.69	16.3114
3070.85	16.3039
3069.01	12.2224
3067.17	44.7948
3065.33	8.14078
3063.48	20.3426
3061.64	4.06666
3059.79	8.1296
3057.95	16.2517
3056.1	32.4886
3054.26	28.4145
3052.41	36.5162
3050.56	40.5549
3048.71	24.3218
3046.86	8.10355
3045.01	20.2496
3043.15	28.3364
3041.3	4.0462
3039.45	8.0887
3037.59	40.4249
3035.73	8.08128
3033.88	16.1551
3032.02	12.1108
3030.16	4.03508
3028.3	8.06645
3026.44	24.1882
3024.58	36.2657
3022.72	32.2214
3020.86	12.0775
3018.99	12.0719
3017.13	4.02212
3015.26	16.0811
3013.4	12.0553
3011.53	12.0497
3009.66	16.0589
3007.79	48.1546
3005.92	36.0993
3004.05	32.0735
3002.18	24.0441
3000.31	24.033
2998.44	16.0146
2996.56	20.0091
2994.69	15.9999
2992.81	19.9907
2990.94	-3.99629
2989.06	3.99445
2987.18	43.9187
2985.3	27.9354
2983.42	23.9336
2981.54	55.8193
2979.66	19.9263
2977.78	19.9171
2975.89	43.7974
2974.01	35.8177
2972.13	3.97791
2970.24	19.8804
2968.35	51.6651
2966.46	35.7517
2964.58	43.6763
2962.69	15.875
2960.8	7.93382
2958.91	35.6857
2957.01	43.5957
2955.12	55.4598
2953.23	47.515
2951.33	15.831
2949.44	63.2949
2947.54	31.6328
2945.64	43.475
2943.74	15.8018
2941.84	35.5376
2939.94	27.6276
2938.04	43.3947
2936.14	27.602
2934.24	23.6479
2932.34	39.395
2930.43	39.3768
2928.53	39.3585
2926.62	43.2743
2924.71	31.4577
2922.81	70.747
2920.9	27.5
2918.99	47.121
2917.08	35.3244
2915.16	23.5387
2913.25	50.9768
2911.34	27.4363
2909.43	23.506
2907.51	35.2426
2905.59	39.1403
2903.68	31.2977
2901.76	54.7456
2899.84	35.1773
2897.92	31.2542
2896	39.0496
2894.08	42.9346
2892.16	31.2107
2890.24	46.7943
2888.31	19.4886
2886.39	27.2713
2884.46	31.1528
2882.53	38.9229
2880.61	19.4524
2878.68	11.666
2876.75	19.4343
2874.82	34.9655
2872.89	62.1321
2870.96	27.1701
2869.02	46.5557
2867.09	34.9006
2865.15	46.5124
2863.22	38.7423
2861.28	73.5762
2859.35	54.1888
2857.41	30.9506
2855.47	30.9362
2853.53	19.3261
2851.59	42.4977
2849.64	46.3395
2847.7	46.3179
2845.76	42.4383
2843.81	23.1374
2841.87	19.2722
2839.92	42.379
2837.97	42.3593
2836.03	34.6414
2834.08	11.5418
2832.13	26.9182
2830.18	23.062
2828.22	30.735
2826.27	30.7207
2824.32	26.868
2822.36	23.019
2820.41	30.6777
2818.45	11.4988
2816.49	19.1556
2814.54	3.82934
2812.58	34.448
2810.62	26.7803
2808.66	42.0637
2806.69	0
2804.73	38.204
2802.77	42.0048
2800.8	11.4505
2798.84	34.3354
2796.87	45.7592
2794.9	34.3033
2792.93	26.6679
2790.96	26.6554
2788.99	26.6429
2787.02	34.2392
2785.05	3.80257
2783.08	30.4063
2781.1	41.7891
2779.13	41.7695
2777.15	60.7273
2775.18	30.3494
2773.2	34.1271
2771.22	34.1111
2769.24	30.3068
2767.26	37.8657
2765.28	22.7088
2763.3	49.1793
2761.31	22.6875
2759.33	30.2358
2757.35	33.9993
2755.36	30.2074
2753.37	52.8382
2751.39	41.4962
2749.4	52.7886
2747.41	22.6131
2745.42	64.0402
2743.42	45.1836
2741.43	41.3989
2739.44	26.3324
2737.44	15.04
2735.45	33.8241
2733.45	26.2953
2731.46	45.0564
2729.46	48.7882
2727.46	30.0094
2725.46	29.9953
2723.46	33.7288
2721.46	33.7129
2719.45	41.1853
2717.45	33.6812
2715.44	18.703
2713.44	41.1272
2711.43	29.8966
2709.42	52.2944
2707.42	41.0691
2705.41	44.7816
2703.4	52.2205
2701.38	29.8262
2699.37	26.0857
2697.36	33.5229
2695.34	78.1833
2693.33	40.9338
2691.31	33.4755
2689.3	40.8952
2687.28	37.1599
2685.26	40.8566
2683.24	33.4124
2681.22	25.9752
2679.2	55.6348
2677.17	14.8289
2675.15	29.6439
2673.13	44.4448
2671.1	44.4238
2669.07	33.3021
2667.05	33.2864
2665.02	55.4511
2662.99	70.2049
2660.96	48.0122
2658.93	55.3725
2656.89	40.5873
2654.86	44.2561
2652.83	40.5489
2650.79	40.5297
2648.76	44.1933
2646.72	29.4483
2644.68	33.1136
2642.64	36.7755
2640.6	29.4065
2638.56	62.4592
2636.52	58.7573
2634.47	22.0235
2632.43	14.6754
2630.39	44.0054
2628.34	29.323
2626.29	36.6364
2624.25	43.9428
2622.2	62.2228
2620.15	32.9259
2618.1	29.2535
2616.04	40.2045
2613.99	43.8387
2611.94	58.4239
2609.88	47.4469
2607.83	40.1283
2605.77	40.1092
2603.71	32.8011
2601.66	40.0711
2599.6	47.3343
2597.54	43.6725
2595.47	43.6517
2593.41	50.9028
2591.35	47.2444
2589.28	50.8544
2587.22	29.0458
2585.15	47.1771
2583.09	50.7819
2581.02	47.1322
2578.95	36.2383
2576.88	43.4652
2574.81	54.3057
2572.73	61.5172
2570.66	83.1895
2568.59	46.9977
2566.51	72.2698
2564.43	75.8471
2562.36	46.9306
2560.28	32.4749
2558.2	25.2463
2556.12	36.0489
2554.04	43.238
2551.96	57.6232
2549.87	82.7939
2547.79	39.5782
2545.7	46.7519
2543.62	32.3513
2541.53	68.2645
2539.44	68.232
2537.35	46.6627
2535.26	25.1141
2533.17	60.9623
2531.08	32.2587
2528.99	60.904
2526.89	60.8749
2524.8	64.425
2522.7	60.8168
2520.6	39.3332
2518.51	28.5923
2516.41	75.0189
2514.31	46.4181
2512.21	57.1026
2510.1	89.1802
2508	49.917
2505.9	74.8397
2503.79	60.5555
2501.69	74.768
2499.58	67.6149
2497.47	42.6837
2495.36	71.1054
2493.25	53.3035
2491.14	56.8298
2489.03	78.1036
2486.91	56.7754
2484.8	60.2949
2482.68	38.9957
2480.57	35.4336
2478.45	63.7499
2476.33	60.1794
2474.21	49.5357
2472.09	74.2679
2469.97	60.0928
2467.85	56.5308
2465.73	63.5666
2463.6	45.8872
2461.48	77.6179
2459.35	59.9487
2457.22	42.2964
2455.09	56.3681
2452.96	84.5115
2450.83	56.3139
2448.7	56.2868
2446.57	49.2273
2444.43	59.7473
2442.3	80.7957
2440.16	87.7791
2438.03	84.2274
2435.89	66.6479
2433.75	63.1098
2431.61	66.5838
2429.47	66.5518
2427.33	70.0207
2425.19	48.9909
2423.04	45.4697
2420.9	59.4317
2418.75	48.9201
2416.6	73.3449
2414.46	76.8004
2412.31	52.3387
2410.16	69.7513
2408.01	73.2035
2405.85	66.1998
2403.7	45.2728
2401.55	59.1743
2399.39	48.7082
2397.23	69.5496
2395.08	59.0886
2392.92	72.9566
2390.76	69.4489
2388.6	69.4154
2386.44	79.7891
2384.27	72.8157
2382.11	93.575
2379.95	72.7454
2377.78	65.7854
2375.61	79.5965
2373.44	62.2628
2371.28	55.3179
2369.11	72.5696
2366.93	75.9886
2364.76	55.2377
2362.59	100.07
2360.42	72.4293
2358.24	82.7362
2356.06	93.0332
2353.89	89.5441
2351.71	65.4044
2349.53	86.0167
2347.35	72.219
2345.17	96.2454
2342.98	65.2777
2340.8	96.1521
2338.62	68.6468
2336.43	68.6135
2334.24	68.5802
2332.05	78.829
2329.87	51.3852
2327.68	71.9044
2325.48	68.4472
2323.29	75.2553
2321.1	95.733
2318.9	71.7649
2316.71	54.6514
2314.51	99.0076
2312.32	92.1347
2310.12	61.3933
2307.92	64.7725
2305.72	61.3336
2303.51	91.9557
2301.31	98.7192
2299.11	88.4638
2296.9	74.8176
2294.7	101.974
2292.49	81.5398
2290.28	71.3126
2288.07	81.4604
2285.86	108.561
2283.65	81.3811
2281.44	91.5091
2279.22	74.5267
2277.01	132.051
2274.79	81.2226
2272.58	74.4177
2270.36	111.572
2268.14	101.38
2265.92	77.6866
2263.7	94.5289
2261.48	80.9852
2259.25	84.3185
2257.03	107.875
2254.8	84.2362
2252.58	90.9306
2250.35	104.351
2248.12	77.3838
2245.89	84.0717
2243.66	110.92
2241.43	100.788
2239.19	90.6645
2236.96	83.9075
2234.72	87.2212
2232.49	70.4134
2230.25	90.4873
2228.01	107.192
2225.77	90.3988
2223.53	103.74
2221.29	83.6207
2219.05	86.9229
2216.8	76.8557
2214.56	96.8576
2212.31	130.193
2210.06	96.7627
2207.81	113.39
2205.57	80.001
2203.31	96.6205
2201.06	109.894
2198.81	106.511
2196.56	93.1516
2194.3	79.8051
2192.04	86.4131
2189.79	79.7268
2187.53	102.93
2185.27	82.9673
2183.01	79.6095
2180.75	109.409
2178.48	122.611
2176.22	76.1801
2173.95	92.6954
2171.69	109.195
2169.42	92.6044
2167.15	82.6418
2164.88	89.2093
2162.61	108.98
2160.34	92.4224
2158.07	92.3769
2155.79	125.307
2153.52	148.317
2151.24	125.184
2148.96	128.415
2146.69	105.314
2144.41	124.999
2142.13	88.7713
2139.84	111.731
2137.56	82.1147
2135.28	101.772
2132.99	108.285
2130.71	147.588
2128.42	114.734
2126.13	95.0185
2123.84	117.896
2121.55	117.838
2119.26	130.866
2116.96	120.991
2114.67	107.858
2112.37	124.139
2110.08	111.017
2107.78	101.171
2105.48	110.907
2103.18	123.894
2100.88	130.35
2098.58	110.743
2096.27	97.666
2093.97	120.395
2091.66	130.093
2089.36	139.78
2087.05	129.964
2084.74	120.157
2082.43	113.606
2080.12	139.504
2077.81	97.2802
2075.49	126.402
2073.18	129.579
2070.86	126.276
2068.54	119.741
2066.23	139.09
2063.91	116.39
2061.59	109.869
2059.26	145.343
2056.94	116.217
2054.62	125.839
2052.29	125.777
2049.97	141.831
2047.64	106.321
2045.31	125.59
2042.98	138.402
2040.65	138.333
2038.32	106.11
2035.98	125.34
2033.65	144.552
2031.31	147.69
2028.98	131.572
2026.64	137.921
2024.3	105.794
2021.96	128.171
2019.62	108.892
2017.28	128.044
2014.93	115.182
2012.59	127.917
2010.24	127.853
2007.89	150.152
2005.55	134.112
2003.2	150.003
2000.84	111.649
1998.49	146.665
1996.14	162.526
1993.79	152.89
1991.43	140.079
1989.07	146.373
1986.72	136.759
1984.36	165.3
1982	174.75
1979.64	127.027
1977.27	152.357
1974.91	117.383
1972.54	145.863
1970.18	123.605
1967.81	139.382
1965.44	180.473
1963.07	148.736
1960.7	145.499
1958.33	158.072
1955.96	154.833
1953.58	145.281
1951.21	195.716
1948.83	141.981
1946.45	141.91
1944.07	173.358
1941.69	173.272
1939.31	147.994
1936.93	179.393
1934.55	150.992
1932.16	176.069
1929.77	147.698
1927.39	179.034
1925	153.829
1922.61	166.303
1920.22	197.582
1917.83	150.463
1915.43	156.654
1913.04	134.655
1910.64	162.757
1908.24	147.033
1905.85	187.608
1903.45	187.514
1901.05	178.049
1898.64	196.692
1896.24	127.942
1893.84	205.852
1891.43	149.635
1889.03	171.371
1886.62	155.713
1884.21	158.748
1881.8	199.113
1879.39	174.136
1876.97	189.588
1874.56	139.79
1872.14	136.615
1869.73	148.959
1867.31	217.123
1864.89	173.611
1862.47	192.115
1860.05	173.436
1857.63	213.591
1855.2	188.731
1852.78	160.805
1850.35	173.087
1847.93	179.178
1845.5	176
1843.07	166.653
1840.64	181.992
1838.2	215.814
1835.77	194.135
1833.34	218.676
1830.9	203.174
1828.46	199.995
1826.02	199.894
1823.59	221.309
1821.14	202.764
1818.7	214.944
1816.26	202.559
1813.81	180.984
1811.37	214.619
1808.92	183.866
1806.47	202.15
1804.02	208.171
1801.57	211.125
1799.12	214.076
1796.67	223.138
1794.21	201.639
1791.76	210.698
1789.3	219.748
1786.84	231.838
1784.38	204.28
1781.92	185.892
1779.46	234.532
1777	240.502
1774.53	206.909
1772.07	234.176
1769.6	249.255
1767.13	215.709
1764.66	212.563
1762.19	233.701
1759.72	203.247
1757.25	224.368
1754.77	230.315
1752.3	224.14
1749.82	242.191
1747.34	245.093
1744.86	217.75
1742.38	217.639
1739.9	214.508
1737.42	229.497
1734.93	217.308
1732.45	244.347
1729.96	214.072
1727.47	216.976
1724.98	265.058
1722.49	222.777
1720	243.726
1717.5	237.587
1715.01	246.484
1712.51	237.345
1710.02	249.236
1707.52	234.102
1705.02	227.983
1702.52	266.844
1700.01	221.757
1697.51	227.635
1695.01	248.474
1692.5	218.426
1689.99	227.287
1687.48	239.127
1684.97	247.968
1682.46	241.869
1679.95	253.684
1677.44	274.435
1674.92	244.48
1672.41	262.235
1669.89	253.166
1667.37	250.059
1664.85	291.587
1662.33	288.464
1659.8	264.538
1657.28	276.286
1654.75	243.482
1652.23	237.422
1649.7	293.659
1647.17	254.967
1644.64	284.469
1642.11	233.975
1639.57	298.979
1637.04	275.156
1634.5	245.444
1631.97	263.052
1629.43	245.192
1626.89	253.924
1624.35	268.55
1621.81	286.109
1619.26	256.482
1616.72	268.137
1614.17	267.999
1611.62	250.2
1609.07	261.84
1606.52	291.111
1603.97	273.327
1601.42	267.312
1598.87	270.11
1596.31	313.989
1593.75	307.961
1591.2	287.283
1588.64	269.555
1586.08	269.417
1583.51	263.424
1580.95	298.394
1578.39	239.762
1575.82	327.311
1573.25	254.12
1570.68	294.861
1568.11	271.366
1565.54	317.888
1562.97	308.98
1560.4	291.34
1557.82	279.542
1555.25	302.682
1552.67	343.25
1550.09	261.666
1547.51	261.531
1544.93	284.631
1542.34	316.416
1539.76	313.352
1537.17	263.891
1534.59	301.434
1532	292.588
1529.41	298.228
1526.82	300.968
1524.22	251.641
1521.63	294.875
1519.03	317.838
1516.44	306.122
1513.84	314.623
1511.24	331.77
1508.64	285.463
1506.04	325.663
1503.43	325.494
1500.83	310.931
1498.22	290.627
1495.62	287.601
1493.01	304.699
1490.4	333.271
1487.79	315.869
1485.17	344.406
1482.56	283.988
1479.94	338.315
1477.33	338.14
1474.71	349.421
1472.09	306.3
1469.47	351.919
1466.85	346.017
1464.22	322.972
1461.6	377.082
1458.97	348.334
1456.34	322.469
1453.71	370.79
1451.08	359.194
1448.45	350.46
1445.82	367.364
1443.18	352.942
1440.55	358.448
1437.91	361.105
1435.27	395.019
1432.63	355.048
1429.99	352.025
1427.35	343.329
1424.7	320.463
1422.06	342.972
1419.41	405.119
1416.76	356.772
1414.11	322.625
1411.46	330.943
1408.81	313.808
1406.16	384.285
1403.5	344.546
1400.85	364.125
1398.19	366.757
1395.53	355.286
1392.87	338.191
1390.2	349.282
1387.54	349.099
1384.88	326.406
1382.21	424.669
1379.54	404.771
1376.87	384.893
1374.2	404.348
1371.53	406.943
1368.86	392.705
1366.18	389.696
1363.51	397.899
1360.83	375.285
1358.15	369.491
1355.47	358.106
1352.79	363.511
1350.11	352.142
1347.42	365.924
1344.73	357.357
1342.05	412.977
1339.36	418.339
1336.67	393.032
1333.98	384.468
1331.28	361.99
1328.59	400.763
1325.89	422.806
1323.2	394.783
1320.5	405.69
1317.8	366.596
1315.1	433.022
1312.39	344.016
1309.69	374.337
1306.98	390.769
1304.28	418.263
1301.57	423.58
1298.86	398.454
1296.15	425.901
1293.43	433.969
1290.72	408.877
1288	450.08
1285.29	427.765
1282.57	410.99
1279.85	421.801
1277.13	396.78
1274.4	393.817
1271.68	388.105
1268.95	371.394
1266.23	365.699
1263.5	373.751
1260.77	365.313
1258.04	378.847
1255.3	386.879
1252.57	375.705
1249.83	345.357
1247.1	394.485
1244.36	334.04
1241.62	358.493
1238.88	366.509
1236.13	374.517
1233.39	379.783
1230.64	352.275
1227.89	346.63
1225.15	338.263
1222.4	389.887
1219.64	356.98
1216.89	362.239
1214.14	310.326
1211.38	353.693
1208.62	353.506
1205.86	353.319
1203.1	361.281
1200.34	358.375
1197.58	333.763
1194.81	336.298
1192.05	325.277
1189.28	357.616
1186.51	357.426
1183.74	319.348
1180.97	327.293
1178.19	348.747
1175.42	340.456
1172.64	340.275
1169.86	345.493
1167.08	369.589
1164.3	342.43
1161.52	336.858
1158.73	350.146
1155.95	363.42
1153.16	376.68
1150.37	354.967
1147.58	349.402
1144.79	338.471
1142	410.782
1139.2	381.046
1136.41	391.571
1133.61	367.238
1130.81	372.401
1128.01	364.169
1125.21	388.062
1122.41	379.83
1119.6	384.975
1116.8	347.361
1113.99	381.894
1111.18	392.367
1108.37	394.825
1105.55	383.95
1102.74	351.766
1099.93	370.223
1097.11	335.418
1094.29	367.167
1091.47	380.267
1088.65	385.379
1085.83	371.891
1083	337.178
1080.18	398.029
1077.35	373.948
1074.52	373.748
1071.69	415.936
1068.86	405.122
1066.02	396.966
1063.19	391.464
1060.35	444.126
1057.51	367.265
1054.67	419.884
1051.83	409.101
1048.99	390.417
1046.15	353.296
1043.3	424.255
1040.45	387.155
1037.6	357.993
1034.75	394.633
1031.9	349.72
1029.05	402.094
1026.19	391.372
1023.34	385.911
1020.48	320.108
1017.62	340.915
1014.76	395.774
1011.9	377.224
1009.03	371.785
1006.17	387.286
1003.3	374.001
1000.43	389.483
997.562	378.824
994.69	402.12
991.817	349.709
988.942	412.121
986.066	375.402
983.188	354.355
980.308	351.56
977.427	395.618
974.545	429.222
971.66	465.39
968.775	571.68
965.887	729.797
962.999	859.191
960.108	910.614
957.216	676.758
954.323	598.647
951.428	486.947
948.531	429.732
945.633	413.976
942.733	382.721
939.832	354.084
936.929	348.727
934.024	369.192
931.118	363.832
928.211	371.372
925.302	371.171
922.391	396.732
919.478	355.321
916.565	373.143
913.649	370.369
910.732	383.021
907.813	375.106
904.893	372.335
901.971	361.868
899.048	336.021
896.123	376.858
893.196	422.774
890.268	381.571
887.339	353.21
884.407	342.786
881.474	380.951
878.54	360.301
875.604	431.616
872.666	423.724
869.727	415.841
866.786	413.065
863.843	405.195
860.899	450.822
857.953	417.483
855.006	422.345
852.057	467.887
849.107	437.135
846.155	381.015
843.201	479.817
840.246	398.362
837.289	405.753
834.33	402.997
831.37	374.913
828.408	397.495
825.445	414.991
822.48	386.945
819.513	389.262
816.545	368.84
813.575	373.688
810.604	358.343
807.631	358.148
804.656	332.745
801.68	365.315
798.702	370.152
795.722	364.917
792.741	372.263
789.758	377.088
786.773	361.807
783.787	326.452
780.8	353.882
777.81	356.197
774.819	330.931
771.827	360.819
768.832	328.065
765.836	367.933
762.839	342.716
759.84	362.53
756.839	387.32
753.836	364.63
750.832	351.95
747.826	364.231
744.819	331.618
741.81	346.388
738.799	351.179
735.787	365.922
732.773	360.746
729.757	375.467
726.74	342.954
723.721	332.83
720.7	337.612
717.678	347.351
714.654	394.275
711.628	406.45
708.601	366.595
705.572	393.626
702.541	385.986
699.509	375.882
696.475	392.977
693.439	390.29
690.402	372.794
687.363	355.316
684.322	379.782
681.28	389.432
678.236	389.217
675.19	364.382
672.143	398.631
669.094	383.656
666.043	353.948
662.991	390.603
659.936	405.119
656.881	399.987
653.823	402.219
650.764	401.997
647.703	416.475
644.641	396.657
641.576	440.486
638.511	381.544
635.443	430.222
632.374	381.122
629.303	427.305
626.23	439.271
623.155	419.515
620.079	416.846
617.002	458.033
613.922	409.08
610.841	450.225
607.758	476.731
604.673	420.555
601.587	456.767
598.499	485.653
595.409	478.103
592.318	485.115
589.224	494.543
586.129	460.348
583.033	472.2
579.935	452.577
576.834	503.122
573.733	454.492
570.629	454.24
567.524	434.669
564.417	407.879
561.308	402.829
558.198	402.605
555.086	433.704
551.972	421.422
548.856	488.578
545.739	418.548
542.62	430.336
539.499	415.68
536.376	434.66
533.252	424.818
530.126	424.582
526.998	424.345
523.869	419.317
520.738	402.32
517.605	421.243
514.47	452.105
511.333	399.257
508.195	444.433
505.055	453.737
501.913	405.749
498.77	393.596
495.625	376.687
492.478	414.601
489.329	409.607
486.178	421.279
483.026	416.286
479.872	397.033
476.716	434.829
473.558	429.837
470.399	408.235
467.238	455.45
464.075	450.453
460.91	459.679
457.744	412.059
454.576	473.366
451.406	468.37
448.234	498.842
445.061	460.756
441.885	484.114
438.708	486.202
435.529	476.494
432.349	476.227
429.166	468.891
425.982	539.276
422.796	470.719
419.608	491.625
416.419	434.926
413.227	448.78
410.034	464.966
406.839	452.97
403.642	433.95
400.444	454.805
397.243	435.805
394.041	451.952
390.837	442.337
387.631	481.852
384.424	453.528
381.214	446.263
378.003	413.32
374.79	480.768
371.575	438.512
368.359	454.584
365.14	428.699
361.92	440.1
358.698	467.779
355.474	444.256
352.248	457.953
349.021	476.281
345.791	401.708
342.56	489.668
339.327	447.643
336.092	482.161
332.856	442.504
329.617	426.046
326.377	462.831
323.135	439.441
319.891	462.308
316.645	492.08
313.397	471.021
310.148	466.14
306.897	445.119
303.643	465.612
300.388	453.83
297.132	495.016
293.873	464.822
290.612	457.659
287.35	457.4
284.086	496.193
280.82	491.319
277.552	495.63
274.282	447.19
271.01	465.272
267.737	474.171
264.461	494.506
261.184	507.954
257.905	498.518
254.624	500.521
251.341	550.488
248.057	561.59
244.77	522.484
241.482	531.308
238.191	505.937
234.899	510.205
231.605	544.06
228.309	541.476
225.011	559.358
221.712	522.679
218.41	563.264
215.107	556.133
211.801	551.279
208.494	544.163
205.185	582.375
201.874	545.807
198.561	572.658
195.246	551.971
191.93	585.57
188.611	551.342
185.291	607.485
181.968	591.339
178.644	586.489
175.318	572.628
171.99	576.807
168.66	562.966
165.328	542.389
161.994	566.821
158.659	548.513
155.321	626.834
151.982	608.512
148.64	587.967
145.297	594.359
141.952	620.917
138.605	678.809
135.256	651.552
131.905	695.934
128.552	720.136
125.197	744.31
121.84	763.988
118.482	797.039
115.121	827.82
111.758	827.345
108.394	804.582
105.028	768.481
101.659	716.837
100.536	710.022