File: Spicy-Raman/model_train_and_validate/Raman_Data/polyamide/nylon/Set1Sample2_7(light_spot) - 1_.txt
3201.19	-4.21121
3199.41	-12.6298
3197.63	12.6241
3195.85	25.2368
3194.06	8.40844
3192.28	8.40463
3190.49	8.40082
3188.71	33.588
3186.92	4.1966
3185.13	25.1682
3183.34	0
3181.55	12.5727
3179.76	20.945
3177.97	0
3176.18	0
3174.39	4.18329
3172.6	8.36278
3170.8	16.718
3169.01	12.5328
3167.21	0
3165.41	-8.3476
3163.62	4.1719
3161.82	12.51
3160.02	12.5043
3158.22	24.9973
3156.42	12.493
3154.62	20.8122
3152.81	8.32108
3151.01	12.4759
3149.21	8.31351
3147.4	20.7743
3145.6	24.9178
3143.79	24.9065
3141.98	12.4476
3140.17	29.0312
3138.37	-8.29084
3136.56	16.5741
3134.75	33.1332
3132.93	4.13976
3131.12	-4.13787
3129.31	4.13599
3127.49	8.26821
3125.68	0
3123.86	8.26068
3122.05	8.25691
3120.23	33.0126
3118.41	8.24938
3116.59	-4.12281
3114.77	16.4837
3112.95	4.11905
3111.13	20.5859
3109.31	28.8071
3107.49	12.3402
3105.66	32.8923
3103.84	20.5483
3102.01	16.4311
3100.19	8.21182
3098.36	12.3121
3096.53	28.7151
3094.7	0
3092.87	16.3937
3091.04	24.5793
3089.21	4.09467
3087.38	24.5568
3085.55	12.2728
3083.71	20.4453
3081.88	16.3488
3080.04	28.5972
3078.21	20.4173
3076.37	8.16317
3074.53	16.3189
3072.69	8.1557
3070.85	12.2279
3069.01	16.2965
3067.17	8.14451
3065.33	-4.07039
3063.48	16.2741
3061.64	-16.2666
3059.79	8.1296
3057.95	12.1888
3056.1	4.06108
3054.26	20.2961
3052.41	-4.05735
3050.56	-4.05549
3048.71	12.1609
3046.86	4.05178
3045.01	44.5491
3043.15	0
3041.3	8.09241
3039.45	40.4435
3037.59	-4.04249
3035.73	28.2845
3033.88	16.1551
3032.02	4.03693
3030.16	28.2455
3028.3	20.1661
3026.44	12.0941
3024.58	12.0886
3022.72	8.05534
3020.86	12.0775
3018.99	12.0719
3017.13	16.0885
3015.26	12.0608
3013.4	4.01842
3011.53	16.0663
3009.66	16.0589
3007.79	4.01288
3005.92	8.02207
3004.05	28.0643
3002.18	24.0441
3000.31	-8.011
2998.44	28.0256
2996.56	20.0091
2994.69	0
2992.81	19.9907
2990.94	23.9777
2989.06	15.9778
2987.18	11.9778
2985.3	27.9354
2983.42	3.98893
2981.54	35.8838
2979.66	19.9263
2977.78	11.9503
2975.89	23.8895
2974.01	23.8785
2972.13	19.8896
2970.24	0
2968.35	19.8712
2966.46	15.8896
2964.58	11.9117
2962.69	27.7812
2960.8	7.93382
2958.91	15.8603
2957.01	3.96325
2955.12	15.8457
2953.23	51.4746
2951.33	27.7043
2949.44	23.7356
2947.54	15.8164
2945.64	7.90455
2943.74	3.95045
2941.84	7.89724
2939.94	23.6808
2938.04	35.5047
2936.14	7.88629
2934.24	31.5306
2932.34	11.8185
2930.43	27.5637
2928.53	43.2944
2926.62	39.3403
2924.71	27.5255
2922.81	23.5823
2920.9	11.7857
2918.99	35.3408
2917.08	35.3244
2915.16	31.3849
2913.25	31.3704
2911.34	39.1948
2909.43	35.259
2907.51	35.2426
2905.59	3.91403
2903.68	27.3855
2901.76	15.6416
2899.84	19.5429
2897.92	27.3474
2896	7.80992
2894.08	78.063
2892.16	35.112
2890.24	31.1962
2888.31	31.1817
2886.39	31.1673
2884.46	38.941
2882.53	27.246
2880.61	15.5619
2878.68	34.9981
2876.75	34.9818
2874.82	23.3104
2872.89	19.4163
2870.96	42.6959
2869.02	23.2779
2867.09	3.87784
2865.15	46.5124
2863.22	34.8681
2861.28	34.8519
2859.35	3.87063
2857.41	34.8194
2855.47	7.73405
2853.53	27.0566
2851.59	23.1806
2849.64	-3.86163
2847.7	7.71966
2845.76	0
2843.81	11.5687
2841.87	34.6899
2839.92	26.9685
2837.97	3.85084
2836.03	30.7924
2834.08	23.0835
2832.13	26.9182
2830.18	23.062
2828.22	30.735
2826.27	7.68016
2824.32	11.5149
2822.36	7.673
2820.41	15.3388
2818.45	22.9975
2816.49	22.9868
2814.54	7.65868
2812.58	15.3102
2810.62	0
2808.66	34.4158
2806.69	19.1109
2804.73	15.2816
2802.77	30.5489
2800.8	7.63366
2798.84	11.4451
2796.87	22.8796
2794.9	15.2459
2792.93	15.2388
2790.96	22.8475
2788.99	3.80613
2787.02	34.2392
2785.05	41.8283
2783.08	11.4024
2781.1	15.196
2779.13	-11.3917
2777.15	26.5682
2775.18	-3.79368
2773.2	-3.7919
2771.22	18.9506
2769.24	22.7301
2767.26	7.57314
2765.28	18.924
2763.3	22.6981
2761.31	22.6875
2759.33	22.6768
2757.35	18.8885
2755.36	18.8796
2753.37	30.1932
2751.39	26.4067
2749.4	56.5592
2747.41	33.9196
2745.42	26.3695
2743.42	26.3571
2741.43	22.5812
2739.44	15.0471
2737.44	11.28
2735.45	11.2747
2733.45	11.2694
2731.46	11.2641
2729.46	33.7764
2727.46	26.2582
2725.46	22.4964
2723.46	3.74764
2721.46	33.7129
2719.45	0
2717.45	48.6506
2715.44	26.1842
2713.44	0
2711.43	26.1595
2709.42	18.6766
2707.42	22.4013
2705.41	26.1226
2703.4	37.3004
2701.38	3.72828
2699.37	37.2652
2697.36	14.8991
2695.34	22.3381
2693.33	0
2691.31	18.5975
2689.3	26.0242
2687.28	14.864
2685.26	33.4282
2683.24	14.85
2681.22	25.9752
2679.2	48.2168
2677.17	-7.41447
2675.15	18.5274
2673.13	18.5187
2671.1	25.9139
2669.07	-3.70024
2667.05	7.39697
2665.02	62.8446
2662.99	25.8649
2660.96	18.4662
2658.93	7.383
2656.89	40.5873
2654.86	14.752
2652.83	40.5489
2650.79	-3.68452
2648.76	14.7311
2646.72	11.0431
2644.68	22.0758
2642.64	29.4204
2640.6	33.0823
2638.56	14.6963
2636.52	0
2634.47	25.6941
2632.43	11.0066
2630.39	25.6698
2628.34	21.9922
2626.29	7.32727
2624.25	14.6476
2622.2	14.6407
2620.15	18.2921
2618.1	43.8803
2616.04	14.6198
2613.99	32.879
2611.94	21.9089
2609.88	18.2488
2607.83	21.8882
2605.77	10.9389
2603.71	29.1565
2601.66	43.714
2599.6	36.411
2597.54	29.115
2595.47	18.1882
2593.41	36.3591
2591.35	3.63419
2589.28	10.8974
2587.22	7.26146
2585.15	25.403
2583.09	50.7819
2581.02	7.25111
2578.95	0
2576.88	18.1105
2574.81	25.3427
2572.73	39.8052
2570.66	28.9355
2568.59	36.1521
2566.51	28.9079
2564.43	21.6706
2562.36	25.2703
2560.28	39.6916
2558.2	39.6727
2556.12	21.6293
2554.04	46.8412
2551.96	10.8044
2549.87	46.7966
2547.79	17.9901
2545.7	0
2543.62	25.1621
2541.53	25.1501
2539.44	32.3204
2537.35	39.4839
2535.26	53.8159
2533.17	32.2741
2531.08	28.6744
2528.99	32.2433
2526.89	35.8088
2524.8	60.8459
2522.7	39.352
2520.6	21.4545
2518.51	53.6106
2516.41	25.0063
2514.31	17.8531
2512.21	10.7067
2510.1	24.9704
2508	35.655
2505.9	28.5103
2503.79	7.12418
2501.69	24.9227
2499.58	42.7041
2497.47	17.7849
2495.36	46.2185
2493.25	17.7678
2491.14	24.8631
2489.03	24.8511
2486.91	21.2908
2484.8	35.4676
2482.68	46.0858
2480.57	42.5203
2478.45	28.3333
2476.33	31.8597
2474.21	42.4592
2472.09	31.8291
2469.97	42.4184
2467.85	24.7322
2465.73	60.0351
2463.6	35.2978
2461.48	31.7528
2459.35	49.3695
2457.22	52.8705
2455.09	17.615
2452.96	31.6918
2450.83	42.2354
2448.7	28.1434
2446.57	35.1624
2444.43	42.1745
2442.3	35.1285
2440.16	10.5335
2438.03	24.5663
2435.89	21.0467
2433.75	45.5793
2431.61	28.0353
2429.47	21.0163
2427.33	38.5114
2425.19	38.4929
2423.04	31.479
2420.9	27.9678
2418.75	17.4715
2416.6	45.404
2414.46	55.8549
2412.31	17.4462
2410.16	34.8756
2408.01	38.3447
2405.85	27.8736
2403.7	24.3776
2401.55	34.8084
2399.39	34.7916
2397.23	38.2523
2395.08	31.2822
2392.92	27.793
2390.76	27.7796
2388.6	45.12
2386.44	34.6909
2384.27	27.7393
2382.11	41.5889
2379.95	31.1766
2377.78	45.0111
2375.61	38.0679
2373.44	38.0495
2371.28	41.4884
2369.11	38.0127
2366.93	41.4483
2364.76	55.2377
2362.59	31.0561
2360.42	41.3882
2358.24	55.1575
2356.06	27.5654
2353.89	27.552
2351.71	30.981
2349.53	27.5254
2347.35	30.951
2345.17	48.1227
2342.98	37.7924
2340.8	37.774
2338.62	30.891
2336.43	24.0147
2334.24	27.4321
2332.05	37.7008
2329.87	54.8109
2327.68	54.7843
2325.48	37.6459
2323.29	30.7863
2321.1	47.8665
2318.9	47.8433
2316.71	34.1572
2314.51	30.7265
2312.32	30.7116
2310.12	68.2148
2307.92	44.318
2305.72	47.7039
2303.51	47.6807
2301.31	30.637
2299.11	51.0368
2296.9	37.4088
2294.7	40.7897
2292.49	44.1674
2290.28	40.75
2288.07	23.7593
2285.86	37.3178
2283.65	23.7361
2281.44	54.2276
2279.22	40.6509
2277.01	44.017
2274.79	13.5371
2272.58	33.8262
2270.36	37.1907
2268.14	23.6553
2265.92	23.6438
2263.7	67.5206
2261.48	40.4926
2259.25	64.082
2257.03	57.3086
2254.8	40.4334
2252.58	47.1492
2250.35	30.2954
2248.12	57.1967
2245.89	57.1688
2243.66	40.3347
2241.43	23.5171
2239.19	50.3691
2236.96	43.6319
2234.72	57.0292
2232.49	53.6483
2230.25	50.2707
2228.01	53.5959
2225.77	53.5696
2223.53	56.8899
2221.29	33.4483
2219.05	43.4615
2216.8	53.4648
2214.56	26.7193
2212.31	43.3976
2210.06	40.0397
2207.81	20.0101
2205.57	36.6671
2203.31	49.9761
2201.06	36.6312
2198.81	56.5841
2196.56	39.9221
2194.3	49.8782
2192.04	43.2066
2189.79	33.2195
2187.53	43.1642
2185.27	49.7804
2183.01	36.4877
2180.75	33.1543
2178.48	46.3933
2176.22	56.307
2173.95	62.9005
2171.69	56.2517
2169.42	42.9949
2167.15	46.2794
2164.88	42.9526
2162.61	42.9315
2160.34	39.6096
2158.07	56.086
2155.79	26.3804
2153.52	46.143
2151.24	52.7089
2148.96	36.2196
2146.69	65.8213
2144.41	19.7367
2142.13	65.7565
2139.84	55.8655
2137.56	72.2609
2135.28	55.8105
2132.99	42.6576
2130.71	52.4757
2128.42	49.1718
2126.13	58.977
2123.84	36.0237
2121.55	32.7327
2119.26	39.2599
2116.96	45.7806
2114.67	49.0264
2112.37	62.0694
2110.08	45.7128
2107.78	52.2174
2105.48	35.8817
2103.18	61.9469
2100.88	42.3638
2098.58	61.8857
2096.27	55.3441
2093.97	71.5863
2091.66	52.037
2089.36	61.7634
2087.05	61.7329
2084.74	48.7124
2082.43	58.4259
2080.12	51.9085
2077.81	58.3681
2075.49	64.8214
2073.18	38.8736
2070.86	64.7572
2068.54	61.4888
2066.23	54.9891
2063.91	51.7288
2061.59	45.2403
2059.26	38.7581
2056.94	54.8801
2054.62	32.2664
2052.29	54.8257
2049.97	51.5751
2047.64	38.6621
2045.31	70.8454
2042.98	61.1543
2040.65	54.6898
2038.32	32.1545
2035.98	61.0632
2033.65	73.8819
2031.31	77.0559
2028.98	67.3904
2026.64	57.7345
2024.3	60.9117
2021.96	70.4943
2019.62	73.6619
2017.28	96.033
2014.93	44.7931
2012.59	57.5625
2010.24	47.9449
2007.89	67.0894
2005.55	60.6697
2003.2	60.6395
2000.84	60.6093
1998.49	76.521
1996.14	54.1754
1993.79	70.0744
1991.43	66.8558
1989.07	57.2765
1986.72	82.6914
1984.36	82.6502
1982	73.0772
1979.64	73.0407
1977.27	53.9597
1974.91	60.2778
1972.54	63.4186
1970.18	76.0644
1967.81	50.6843
1965.44	79.1546
1963.07	56.9629
1960.7	63.2605
1958.33	79.0361
1955.96	78.9966
1953.58	63.1657
1951.21	75.7609
1948.83	78.8782
1946.45	56.7639
1944.07	81.9513
1941.69	78.7599
1939.31	75.5716
1936.93	75.5338
1934.55	78.6417
1932.16	84.8905
1929.77	84.848
1927.39	62.8189
1925	59.648
1922.61	69.0316
1920.22	53.3158
1917.83	65.8277
1915.43	100.259
1913.04	72.0248
1910.64	62.5988
1908.24	103.236
1905.85	75.0432
1903.45	84.3813
1901.05	71.8443
1898.64	71.8082
1896.24	93.6159
1893.84	81.093
1891.43	84.1697
1889.03	81.0116
1886.62	84.0851
1884.21	80.9302
1881.8	74.6672
1879.39	105.725
1876.97	96.3482
1874.56	62.1289
1872.14	114.881
1869.73	89.9963
1867.31	68.2387
1864.89	86.8055
1862.47	71.2687
1860.05	99.1065
1857.63	102.152
1855.2	114.476
1852.78	95.8644
1850.35	105.089
1847.93	101.946
1845.5	95.7195
1843.07	95.6713
1840.64	123.385
1838.2	86.3256
1835.77	86.2821
1833.34	117.038
1830.9	89.2735
1828.46	83.0747
1826.02	83.0328
1823.59	135.244
1821.14	107.526
1818.7	98.2602
1816.26	101.28
1813.81	88.9584
1811.37	101.177
1808.92	107.255
1806.47	107.201
1804.02	88.7786
1801.57	91.7935
1799.12	64.2229
1796.67	113.097
1794.21	88.5991
1791.76	82.4471
1789.3	82.4053
1786.84	103.717
1784.38	121.958
1781.92	94.4699
1779.46	100.514
1777	97.4185
1774.53	118.669
1772.07	85.1548
1769.6	94.2307
1767.13	85.0684
1764.66	97.1718
1762.19	106.228
1759.72	100.107
1757.25	97.0239
1754.77	112.127
1752.3	115.099
1749.82	115.041
1747.34	118.008
1744.86	114.924
1742.38	111.843
1739.9	105.743
1737.42	87.5713
1734.93	111.672
1732.45	93.5155
1729.96	102.513
1727.47	93.4204
1724.98	90.3608
1722.49	117.409
1720	99.2958
1717.5	87.2155
1715.01	117.23
1712.51	111.162
1710.02	129.122
1707.52	135.059
1705.02	113.992
1702.52	116.932
1700.01	140.846
1697.51	128.793
1695.01	134.715
1692.5	140.631
1689.99	125.606
1687.48	149.454
1684.97	128.465
1682.46	131.386
1679.95	134.303
1677.44	125.286
1674.92	107.333
1672.41	122.178
1669.89	128.072
1667.37	139.914
1664.85	121.99
1662.33	151.667
1659.8	118.893
1657.28	151.512
1654.75	136.588
1652.23	121.679
1649.7	163.144
1647.17	139.343
1644.64	112.602
1642.11	124.392
1639.57	139.129
1637.04	139.057
1634.5	127.158
1631.97	118.226
1629.43	124.073
1626.89	112.199
1624.35	126.897
1621.81	150.429
1619.26	144.455
1616.72	150.274
1614.17	132.527
1611.62	156.007
1609.07	114.739
1606.52	117.62
1603.97	138.133
1601.42	155.687
1598.87	137.991
1596.31	143.789
1593.75	143.715
1591.2	143.641
1588.64	143.568
1586.08	131.78
1583.51	122.931
1580.95	119.943
1578.39	166.664
1575.82	125.664
1573.25	146.046
1570.68	183.923
1568.11	137.142
1565.54	125.405
1562.97	148.66
1560.4	160.237
1557.82	136.859
1555.25	154.251
1552.67	145.445
1550.09	142.463
1547.51	171.448
1544.93	145.22
1542.34	148.048
1539.76	124.76
1537.17	136.296
1534.59	179.701
1532	173.815
1529.41	138.98
1526.82	185.211
1524.22	141.729
1521.63	144.546
1519.03	153.14
1516.44	164.613
1513.84	152.982
1511.24	135.593
1508.64	149.94
1506.04	158.508
1503.43	161.307
1500.83	172.739
1498.22	166.895
1495.62	152.428
1493.01	172.471
1490.4	169.509
1487.79	157.935
1485.17	154.983
1482.56	177.851
1479.94	146.221
1477.33	154.742
1474.71	143.205
1472.09	143.131
1469.47	148.779
1466.85	208.754
1464.22	185.781
1461.6	157.117
1458.97	188.443
1456.34	176.93
1453.71	202.508
1451.08	179.597
1448.45	176.654
1445.82	205.04
1443.18	148.008
1440.55	179.224
1437.91	201.877
1435.27	173.354
1432.63	207.348
1429.99	195.885
1427.35	161.733
1424.7	144.634
1422.06	167.234
1419.41	184.145
1416.76	172.723
1414.11	178.293
1411.46	169.714
1408.81	186.588
1406.16	172.363
1403.5	175.097
1400.85	155.247
1398.19	189.021
1395.53	188.922
1392.87	180.369
1390.2	197.175
1387.54	177.365
1384.88	219.48
1382.21	196.866
1379.54	213.629
1376.87	176.995
1374.2	196.558
1371.53	204.875
1368.86	190.742
1366.18	187.839
1363.51	184.939
1360.83	190.443
1358.15	207.139
1355.47	215.423
1352.79	201.329
1350.11	229.172
1347.42	189.945
1344.73	192.638
1342.05	214.86
1339.36	178.491
1336.67	175.61
1333.98	197.806
1331.28	208.84
1328.59	217.08
1325.89	216.966
1323.2	211.292
1320.5	180.616
1317.8	188.852
1315.1	222.063
1312.39	199.751
1309.69	210.738
1306.98	216.17
1304.28	202.207
1301.57	188.258
1298.86	207.528
1296.15	185.294
1293.43	174.14
1290.72	245.879
1288	196.047
1285.29	212.503
1282.57	198.599
1279.85	206.765
1277.13	190.124
1274.4	176.254
1271.68	165.151
1268.95	181.57
1266.23	159.478
1263.5	164.89
1260.77	173.043
1258.04	175.697
1255.3	172.861
1252.57	161.8
1249.83	186.383
1247.1	199.982
1244.36	169.758
1241.62	183.351
1238.88	161.373
1236.13	158.555
1233.39	161.203
1230.64	166.579
1227.89	180.138
1225.15	155.492
1222.4	169.042
1219.64	171.677
1216.89	138.904
1214.14	146.996
1211.38	157.802
1208.62	149.56
1205.86	152.199
1203.1	146.685
1200.34	154.753
1197.58	143.817
1194.81	146.452
1192.05	159.928
1189.28	154.425
1186.51	148.927
1183.74	156.968
1180.97	170.409
1178.19	140.58
1175.42	159.42
1172.64	156.635
1169.86	161.95
1167.08	151.073
1164.3	177.956
1161.52	156.302
1158.73	172.38
1155.95	148.06
1153.16	188.34
1150.37	161.348
1147.58	169.326
1144.79	155.804
1142	155.721
1139.2	182.473
1136.41	166.284
1133.61	176.917
1130.81	168.786
1128.01	190.118
1125.21	173.959
1122.41	219.339
1119.6	195.161
1116.8	189.713
1113.99	186.941
1111.18	192.18
1108.37	186.742
1105.55	178.643
1102.74	167.888
1099.93	199.76
1097.11	183.681
1094.29	178.262
1091.47	215.396
1088.65	178.072
1085.83	154.069
1083	151.332
1080.18	169.826
1077.35	169.735
1074.52	201.453
1071.69	196.046
1068.86	164.167
1066.02	179.958
1063.19	201.022
1060.35	163.904
1057.51	190.238
1054.67	198.058
1051.83	182.116
1048.99	174.105
1046.15	197.74
1043.3	176.553
1040.45	197.528
1037.6	186.893
1034.75	194.686
1031.9	176.175
1029.05	178.708
1026.19	181.239
1023.34	162.765
1020.48	204.659
1017.62	201.927
1014.76	146.777
1011.9	183.373
1009.03	180.656
1006.17	204.11
1003.3	162.154
1000.43	180.365
997.562	195.943
994.69	154.059
991.817	177.464
988.942	177.369
986.066	156.417
983.188	195.417
980.308	208.332
977.427	203.014
974.545	226.317
971.66	257.395
968.775	413.168
965.887	462.291
962.999	625.574
960.108	614.859
957.216	570.447
954.323	404.281
951.428	323.768
948.531	264.052
945.633	217.337
942.733	214.634
939.832	206.764
936.929	180.821
934.024	170.396
931.118	178.045
928.211	193.423
925.302	180.431
922.391	182.909
919.478	208.558
916.565	172.418
913.649	190.328
910.732	172.231
907.813	205.538
904.893	182.316
901.971	169.385
899.048	187.249
896.123	199.965
893.196	199.857
890.268	181.822
887.339	189.402
884.407	189.3
881.474	186.64
878.54	201.871
875.604	222.193
872.666	196.547
869.727	183.684
866.786	198.883
863.843	186.033
860.899	193.573
857.953	213.833
855.006	198.451
852.057	226.315
849.107	210.943
846.155	200.668
843.201	187.865
840.246	210.599
837.289	218.092
834.33	190.093
831.37	187.456
828.408	182.291
825.445	192.313
822.48	169.447
819.513	171.882
816.545	179.367
813.575	179.269
810.604	158.983
807.631	138.719
804.656	168.893
801.68	188.956
798.702	186.335
795.722	196.3
792.741	148.402
789.758	206.141
786.773	168.341
783.787	193.36
780.8	183.215
777.81	168.065
774.819	180.508
771.827	162.87
768.832	175.302
765.836	182.715
762.839	180.113
759.84	172.514
756.839	192.41
753.836	199.797
750.832	164.743
747.826	177.126
744.819	172.042
741.81	201.852
738.799	176.835
735.787	179.227
732.773	181.617
729.757	191.463
726.74	173.962
723.721	208.64
720.7	176.254
717.678	193.524
714.654	168.621
711.628	200.747
708.601	188.252
705.572	183.197
702.541	202.89
699.509	185.468
696.475	182.895
693.439	219.847
690.402	202.444
687.363	187.528
684.322	202.221
681.28	189.786
678.236	177.365
675.19	219.122
672.143	196.855
669.094	181.99
666.043	199.096
662.991	196.53
659.936	196.421
656.881	193.859
653.823	183.942
650.764	161.779
647.703	210.687
644.641	208.122
641.576	230.032
638.511	203.001
635.443	202.889
632.374	185.675
629.303	192.898
626.23	212.314
623.155	219.514
620.079	221.83
617.002	241.198
613.922	192.365
610.841	253.1
607.758	216.475
604.673	226.079
601.587	247.82
598.499	240.398
595.409	264.534
592.318	269.239
589.224	273.938
586.129	237.443
583.033	283.32
579.935	261.381
576.834	290.263
573.733	236.916
570.629	239.201
567.524	248.727
564.417	226.868
561.308	233.978
558.198	265.189
555.086	231.309
551.972	228.772
548.856	243.086
545.739	247.761
542.62	228.391
539.499	223.458
536.376	220.932
533.252	249.611
530.126	223.085
526.998	227.756
523.869	256.382
520.738	234.686
517.605	227.375
514.47	227.249
511.333	227.122
508.195	234.164
505.055	243.585
501.913	236.289
498.77	219.459
495.625	247.946
492.478	233.511
489.329	226.236
486.178	211.829
483.026	228.362
479.872	259.142
476.716	230.483
473.558	237.479
470.399	249.213
467.238	282.284
464.075	244.193
460.91	263.012
457.744	281.81
454.576	234.316
451.406	276.764
448.234	255.331
445.061	288.268
441.885	316.445
438.708	304.467
435.529	266.554
432.349	320.628
429.166	294.53
425.982	303.784
422.796	294.199
419.608	284.625
416.419	279.763
413.227	274.907
410.034	244.225
406.839	276.945
403.642	258.024
400.444	286.012
397.243	295.223
394.041	311.449
390.837	278.508
387.631	252.622
384.424	264.168
381.214	261.683
378.003	263.871
374.79	240.384
371.575	240.249
368.359	286.737
365.14	281.916
361.92	235.186
358.698	218.762
355.474	295.395
352.248	260.359
349.021	297.385
345.791	260.065
342.56	252.957
339.327	255.133
336.092	301.351
332.856	280.33
329.617	305.641
326.377	284.641
323.135	302.983
319.891	265.827
316.645	274.918
313.397	311.705
310.148	269.992
306.897	288.289
303.643	258.161
300.388	276.445
297.132	273.986
293.873	301.444
290.612	292.074
287.35	298.804
284.086	328.498
280.82	289.282
277.552	286.823
274.282	307.3
271.01	272.746
267.737	297.788
264.461	299.909
261.184	292.874
257.905	272.127
254.624	308.54
251.341	296.944
248.057	299.058
244.77	294.325
241.482	323.801
238.191	298.548
234.899	286.99
231.605	320.973
228.309	302.589
225.011	288.774
221.712	311.335
218.41	315.7
215.107	324.6
211.801	331.221
208.494	331.032
205.185	326.312
201.874	287.625
198.561	337.257
195.246	303.132
191.93	312.002
188.611	327.642
185.291	336.488
181.968	313.725
178.644	336.104
175.318	304.349
171.99	346.985
168.66	333.276
165.328	328.584
161.994	348.64
158.659	343.945
155.321	321.281
151.982	336.815
148.64	338.866
145.297	379.044
141.952	365.377
138.605	432.377
135.256	387.349
131.905	431.882
128.552	407.033
125.197	413.505
121.84	413.268
118.482	421.962
115.121	457.421
111.758	452.698
108.394	407.863
105.028	432.131
101.659	398.49
100.536	402.865