File: Spicy-Raman/model_train_and_validate/Raman_Data/polyamide/nylon/Set1Sample2_19 - 1_.txt
3201.19	29.4785
3199.41	0
3197.63	12.6241
3195.85	4.20613
3194.06	4.20422
3192.28	-8.40463
3190.49	0
3188.71	4.1985
3186.92	20.983
3185.13	12.5841
3183.34	25.1568
3181.55	16.7636
3179.76	29.3229
3177.97	8.37418
3176.18	20.9259
3174.39	20.9164
3172.6	4.18139
3170.8	25.0769
3169.01	8.35519
3167.21	50.1084
3165.41	0
3163.62	29.2033
3161.82	4.17001
3160.02	20.8406
3158.22	8.33244
3156.42	4.16432
3154.62	8.32486
3152.81	20.8027
3151.01	-4.15865
3149.21	-4.15676
3147.4	-4.15486
3145.6	16.6119
3143.79	-8.30217
3141.98	16.5968
3140.17	29.0312
3138.37	33.1634
3136.56	12.4306
3134.75	16.5666
3132.93	33.1181
3131.12	20.6894
3129.31	0
3127.49	8.26821
3125.68	-4.13222
3123.86	24.782
3122.05	16.5138
3120.23	16.5063
3118.41	4.12469
3116.59	8.24562
3114.77	24.7256
3112.95	20.5953
3111.13	0
3109.31	12.3459
3107.49	8.22683
3105.66	12.3346
3103.84	0
3102.01	41.0779
3100.19	0
3098.36	28.7283
3096.53	24.613
3094.7	12.3009
3092.87	8.19683
3091.04	8.19308
3089.21	-8.18934
3087.38	4.0928
3085.55	12.2728
3083.71	8.17812
3081.88	12.2616
3080.04	20.4266
3078.21	20.4173
3076.37	16.3263
3074.53	16.3189
3072.69	8.1557
3070.85	20.3799
3069.01	20.3706
3067.17	20.3613
3065.33	12.2112
3063.48	12.2056
3061.64	-4.06666
3059.79	28.4536
3057.95	12.1888
3056.1	16.2443
3054.26	20.2961
3052.41	0
3050.56	8.11099
3048.71	-4.05364
3046.86	0
3045.01	0
3043.15	-8.09612
3041.3	4.0462
3039.45	0
3037.59	-16.17
3035.73	16.1626
3033.88	4.03878
3032.02	32.2954
3030.16	12.1052
3028.3	0
3026.44	20.1569
3024.58	-16.1181
3022.72	28.1937
3020.86	24.1549
3018.99	12.0719
3017.13	20.1106
3015.26	44.223
3013.4	24.1105
3011.53	-12.0497
3009.66	-4.01473
3007.79	36.1159
3005.92	28.0773
3004.05	20.046
3002.18	24.0441
3000.31	4.0055
2998.44	8.00732
2996.56	8.00363
2994.69	23.9998
2992.81	7.99626
2990.94	15.9852
2989.06	15.9778
2987.18	51.9039
2985.3	15.9631
2983.42	3.98893
2981.54	7.97419
2979.66	0
2977.78	23.9005
2975.89	27.8711
2974.01	19.8987
2972.13	23.8675
2970.24	23.8565
2968.35	3.97424
2966.46	19.862
2964.58	19.8529
2962.69	15.875
2960.8	15.8676
2958.91	11.8952
2957.01	15.853
2955.12	11.8843
2953.23	39.5959
2951.33	19.7888
2949.44	31.6474
2947.54	35.5869
2945.64	39.5227
2943.74	39.5045
2941.84	15.7945
2939.94	0
2938.04	15.7799
2936.14	31.5452
2934.24	11.824
2932.34	31.516
2930.43	7.87535
2928.53	15.7434
2926.62	27.5382
2924.71	27.5255
2922.81	35.3735
2920.9	23.5714
2918.99	15.707
2917.08	3.92493
2915.16	-7.84623
2913.25	62.7407
2911.34	27.4363
2909.43	27.4236
2907.51	27.4109
2905.59	39.1403
2903.68	15.6489
2901.76	31.2832
2899.84	54.7202
2897.92	23.4406
2896	31.2397
2894.08	31.2252
2892.16	35.112
2890.24	7.79905
2888.31	3.89772
2886.39	15.5836
2884.46	42.8351
2882.53	19.4614
2880.61	35.0143
2878.68	31.1094
2876.75	31.0949
2874.82	15.5402
2872.89	15.533
2870.96	34.933
2869.02	7.75929
2867.09	27.1449
2865.15	38.7604
2863.22	209.209
2861.28	46.4692
2859.35	27.0944
2857.41	58.0324
2855.47	23.2022
2853.53	23.1914
2851.59	15.4537
2849.64	23.1698
2847.7	7.71966
2845.76	11.5741
2843.81	26.9936
2841.87	7.70887
2839.92	30.8211
2837.97	3.85084
2836.03	30.7924
2834.08	11.5418
2832.13	26.9182
2830.18	15.3747
2828.22	26.8931
2826.27	11.5202
2824.32	11.5149
2822.36	34.5285
2820.41	7.66942
2818.45	3.83292
2816.49	19.1556
2814.54	11.488
2812.58	19.1378
2810.62	30.6061
2808.66	30.5918
2806.69	19.1109
2804.73	19.102
2802.77	22.9117
2800.8	22.901
2798.84	22.8903
2796.87	30.5061
2794.9	7.62296
2792.93	7.61939
2790.96	15.2317
2788.99	19.0307
2787.02	3.80435
2785.05	19.0129
2783.08	11.4024
2781.1	3.79901
2779.13	15.1889
2777.15	3.79545
2775.18	11.381
2773.2	11.3757
2771.22	3.79012
2769.24	15.1534
2767.26	22.7194
2765.28	15.1392
2763.3	22.6981
2761.31	-3.78125
2759.33	18.8974
2757.35	0
2755.36	33.9833
2753.37	7.54831
2751.39	0
2749.4	11.3118
2747.41	22.6131
2745.42	7.53415
2743.42	15.0612
2741.43	3.76354
2739.44	3.76177
2737.44	11.28
2735.45	0
2733.45	-3.75647
2731.46	15.0188
2729.46	22.5176
2727.46	30.0094
2725.46	3.74941
2723.46	3.74764
2721.46	0
2719.45	14.9765
2717.45	11.2271
2715.44	18.703
2713.44	37.3883
2711.43	29.8966
2709.42	14.9413
2707.42	22.4013
2705.41	-3.7318
2703.4	11.1901
2701.38	22.3697
2699.37	11.1796
2697.36	3.72477
2695.34	22.3381
2693.33	18.6063
2691.31	3.7195
2689.3	14.871
2687.28	11.148
2685.26	3.71424
2683.24	40.8374
2681.22	25.9752
2679.2	33.3809
2677.17	14.8289
2675.15	7.41097
2673.13	22.2224
2671.1	11.106
2669.07	7.40047
2667.05	0
2665.02	18.4837
2662.99	0
2660.96	33.2392
2658.93	18.4575
2656.89	25.8283
2654.86	59.0082
2652.83	25.8039
2650.79	0
2648.76	33.145
2646.72	29.4483
2644.68	7.35859
2642.64	33.098
2640.6	11.0274
2638.56	3.67407
2636.52	3.67233
2634.47	22.0235
2632.43	11.0066
2630.39	25.6698
2628.34	18.3269
2626.29	18.3182
2624.25	21.9714
2622.2	3.66016
2620.15	29.2674
2618.1	18.2835
2616.04	18.2748
2613.99	29.2258
2611.94	32.8634
2609.88	-7.29952
2607.83	18.2401
2605.77	21.8778
2603.71	10.9337
2601.66	25.4998
2599.6	10.9233
2597.54	18.1969
2595.47	14.5506
2593.41	10.9077
2591.35	7.26837
2589.28	14.5298
2587.22	21.7844
2585.15	7.25801
2583.09	14.5091
2581.02	21.7533
2578.95	14.4953
2576.88	14.4884
2574.81	10.8611
2572.73	39.8052
2570.66	21.7016
2568.59	36.1521
2566.51	3.61349
2564.43	18.0588
2562.36	36.1005
2560.28	-3.60833
2558.2	21.6396
2556.12	10.8147
2554.04	3.60317
2551.96	32.4131
2549.87	21.5984
2547.79	10.7941
2545.7	28.7704
2543.62	21.5675
2541.53	39.5216
2539.44	17.9558
2537.35	25.1261
2535.26	28.7018
2533.17	32.2741
2531.08	25.0901
2528.99	14.3304
2526.89	14.3235
2524.8	21.475
2522.7	10.7324
2520.6	25.0302
2518.51	35.7404
2516.41	35.7233
2514.31	21.4237
2512.21	17.8446
2510.1	64.2097
2508	32.0895
2505.9	28.5103
2503.79	49.8692
2501.69	32.0434
2499.58	-7.11736
2497.47	21.3418
2495.36	17.7764
2493.25	14.2143
2491.14	56.8298
2489.03	14.2007
2486.91	28.3877
2484.8	7.09352
2482.68	14.1802
2480.57	21.2602
2478.45	17.7083
2476.33	17.6998
2474.21	14.1531
2472.09	31.8291
2469.97	3.53487
2467.85	21.199
2465.73	35.3148
2463.6	28.2382
2461.48	17.6404
2459.35	28.2111
2457.22	10.5741
2455.09	7.04601
2452.96	31.6918
2450.83	17.5981
2448.7	31.6613
2446.57	14.0649
2444.43	24.6018
2442.3	17.5643
2440.16	7.02233
2438.03	21.0569
2435.89	24.5545
2433.75	31.5549
2431.61	24.5309
2429.47	24.5191
2427.33	28.0083
2425.19	24.4955
2423.04	3.49767
2420.9	24.4719
2418.75	41.9316
2416.6	6.98522
2414.46	38.4002
2412.31	41.8709
2410.16	52.3134
2408.01	17.4294
2405.85	20.9052
2403.7	17.4126
2401.55	34.8084
2399.39	45.2291
2397.23	41.7298
2395.08	17.379
2392.92	24.3189
2390.76	20.8347
2388.6	17.3538
2386.44	20.8145
2384.27	34.6742
2382.11	24.2602
2379.95	31.1766
2377.78	24.2367
2375.61	17.3036
2373.44	20.7543
2371.28	76.0621
2369.11	38.0127
2366.93	31.0862
2364.76	17.2618
2362.59	31.0561
2360.42	17.2451
2358.24	31.0261
2356.06	17.2284
2353.89	37.8841
2351.71	20.654
2349.53	20.644
2347.35	41.268
2345.17	30.936
2342.98	30.921
2340.8	17.17
2338.62	24.0264
2336.43	0
2334.24	13.716
2332.05	23.9914
2329.87	34.2568
2327.68	0
2325.48	30.8012
2323.29	44.4691
2321.1	20.5142
2318.9	47.8433
2316.71	20.4943
2314.51	34.1406
2312.32	23.8868
2310.12	30.6966
2307.92	20.4545
2305.72	23.852
2303.51	30.6519
2301.31	37.4452
2299.11	34.0245
2296.9	34.008
2294.7	16.9957
2292.49	30.5774
2290.28	20.375
2288.07	20.3651
2285.86	37.3178
2283.65	10.1726
2281.44	40.6707
2279.22	3.38758
2277.01	30.4733
2274.79	30.4585
2272.58	40.5915
2270.36	37.1907
2268.14	33.7933
2265.92	37.1545
2263.7	40.5124
2261.48	30.3695
2259.25	23.6092
2257.03	20.2266
2254.8	37.0639
2252.58	33.678
2250.35	23.5631
2248.12	37.0096
2245.89	26.903
2243.66	40.3347
2241.43	40.315
2239.19	53.7271
2236.96	23.4941
2234.72	30.1919
2232.49	53.6483
2230.25	50.2707
2228.01	43.5466
2225.77	20.0886
2223.53	30.1182
2221.29	30.1034
2219.05	30.0887
2216.8	43.4402
2214.56	30.0592
2212.31	30.0445
2210.06	26.6932
2207.81	30.0151
2205.57	36.6671
2203.31	29.9857
2201.06	36.6312
2198.81	39.9417
2196.56	43.249
2194.3	26.6017
2192.04	46.5301
2189.79	49.8293
2187.53	36.5235
2185.27	46.4617
2183.01	33.1706
2180.75	56.3624
2178.48	39.7657
2176.22	39.7461
2173.95	56.2794
2171.69	43.016
2169.42	42.9949
2167.15	39.6681
2164.88	56.1688
2162.61	23.117
2160.34	33.008
2158.07	39.5901
2155.79	42.8682
2153.52	39.5512
2151.24	26.3545
2148.96	55.9757
2146.69	36.2017
2144.41	36.1839
2142.13	42.7417
2139.84	19.7172
2137.56	32.8459
2135.28	32.8297
2132.99	42.6576
2130.71	19.6784
2128.42	52.4499
2126.13	22.9355
2123.84	42.5735
2121.55	42.5525
2119.26	26.1732
2116.96	49.0506
2114.67	32.6843
2112.37	52.269
2110.08	52.2432
2107.78	45.6902
2105.48	58.7156
2103.18	58.6866
2100.88	35.8463
2098.58	29.3143
2096.27	35.8109
2093.97	55.3167
2091.66	35.7755
2089.36	35.7578
2087.05	42.2383
2084.74	38.9699
2082.43	45.4424
2080.12	55.1527
2077.81	45.3974
2075.49	38.8928
2073.18	45.3525
2070.86	48.5679
2068.54	32.3625
2066.23	35.5812
2063.91	35.5635
2061.59	61.3975
2059.26	51.6775
2056.94	38.7389
2054.62	58.0796
2052.29	35.4755
2049.97	45.1282
2047.64	61.215
2045.31	41.8632
2042.98	32.1865
2040.65	73.9921
2038.32	48.2318
2035.98	61.0632
2033.65	48.1839
2031.31	54.5813
2028.98	41.7179
2026.64	35.2822
2024.3	25.647
2021.96	54.4728
2019.62	51.2431
2017.28	60.8209
2014.93	38.3941
2012.59	38.375
2010.24	51.1412
2007.89	60.6999
2005.55	31.9314
2003.2	44.6817
2000.84	51.0394
1998.49	44.6373
1996.14	54.1754
1993.79	54.1484
1991.43	66.8558
1989.07	50.9124
1986.72	63.6088
1984.36	57.2194
1982	54.0136
1979.64	44.4596
1977.27	76.1784
1974.91	50.7602
1972.54	44.393
1970.18	63.387
1967.81	47.5165
1965.44	50.659
1963.07	72.7859
1960.7	63.2605
1958.33	44.2602
1955.96	47.3979
1953.58	69.4822
1951.21	44.1939
1948.83	69.4128
1946.45	37.8426
1944.07	53.5835
1941.69	53.5567
1939.31	56.6787
1936.93	31.4724
1934.55	37.748
1932.16	50.3055
1929.77	43.9953
1927.39	65.9598
1925	75.3449
1922.61	62.756
1920.22	62.7245
1917.83	59.5584
1915.43	65.7947
1913.04	43.8412
1910.64	46.9491
1908.24	46.9256
1905.85	68.7896
1903.45	62.5047
1901.05	53.1023
1898.64	56.1977
1896.24	62.4106
1893.84	59.2603
1891.43	59.2305
1889.03	77.8957
1886.62	74.7423
1884.21	77.8175
1881.8	93.3341
1879.39	83.9584
1876.97	93.2402
1874.56	46.5967
1872.14	58.9928
1869.73	93.0996
1867.31	65.1369
1864.89	55.8036
1862.47	83.6632
1860.05	68.1357
1857.63	77.3879
1855.2	71.161
1852.78	64.9404
1850.35	86.5436
1847.93	101.946
1845.5	61.7545
1843.07	74.0681
1840.64	67.8615
1838.2	80.1595
1835.77	73.9561
1833.34	107.798
1830.9	76.9599
1828.46	83.0747
1826.02	70.7316
1823.59	58.401
1821.14	73.7324
1818.7	67.5539
1816.26	107.418
1813.81	73.6207
1811.37	101.177
1808.92	55.1597
1806.47	101.075
1804.02	58.1653
1801.57	64.2554
1799.12	64.2229
1796.67	67.2471
1794.21	88.5991
1791.76	73.2863
1789.3	57.9889
1786.84	85.4141
1784.38	88.4198
1781.92	73.138
1779.46	70.055
1777	94.3741
1774.53	69.984
1772.07	97.3197
1769.6	118.548
1767.13	97.2211
1764.66	100.208
1762.19	179.07
1759.72	103.14
1757.25	112.184
1754.77	93.9442
1752.3	84.8098
1749.82	87.7941
1747.34	90.7753
1744.86	87.7049
1742.38	96.7287
1739.9	105.743
1737.42	99.6501
1734.93	63.3814
1732.45	84.4656
1729.96	93.4679
1727.47	117.529
1724.98	108.433
1722.49	96.3358
1720	102.305
1717.5	99.2452
1715.01	129.254
1712.51	114.166
1710.02	99.0937
1707.52	120.052
1705.02	83.9938
1702.52	98.9423
1700.01	83.9082
1697.51	116.813
1695.01	101.785
1692.5	122.678
1689.99	125.606
1687.48	116.574
1684.97	128.465
1682.46	116.455
1679.95	89.5354
1677.44	122.303
1674.92	98.3884
1672.41	113.238
1669.89	113.18
1667.37	116.099
1664.85	113.064
1662.33	133.823
1659.8	133.755
1657.28	127.745
1654.75	112.833
1652.23	148.389
1649.7	124.583
1647.17	115.625
1644.64	109.639
1642.11	115.506
1639.57	103.607
1637.04	127.223
1634.5	106.458
1631.97	135.959
1629.43	127.027
1626.89	103.341
1624.35	97.3861
1621.81	109.135
1619.26	112.027
1616.72	123.755
1614.17	97.1865
1611.62	120.685
1609.07	111.797
1606.52	129.382
1603.97	123.438
1601.42	135.125
1598.87	114.503
1596.31	117.379
1593.75	117.319
1591.2	114.327
1588.64	102.548
1586.08	128.852
1583.51	105.37
1580.95	114.092
1578.39	116.957
1575.82	122.742
1573.25	137.283
1570.68	119.696
1568.11	102.127
1565.54	119.573
1562.97	113.681
1560.4	134.017
1557.82	125.212
1555.25	113.506
1552.67	122.174
1550.09	116.296
1547.51	139.483
1544.93	133.602
1542.34	136.436
1539.76	124.76
1537.17	113.096
1534.59	136.225
1532	130.361
1529.41	136.085
1526.82	138.908
1524.22	141.729
1521.63	106.964
1519.03	164.698
1516.44	144.397
1513.84	109.685
1511.24	121.168
1508.64	129.756
1506.04	132.571
1503.43	141.143
1500.83	135.312
1498.22	146.752
1495.62	146.676
1493.01	135.102
1490.4	158.017
1487.79	152.192
1485.17	123.412
1482.56	143.428
1479.94	106.082
1477.33	137.548
1474.71	137.477
1472.09	145.993
1469.47	145.918
1466.85	154.421
1464.22	185.781
1461.6	168.544
1458.97	142.76
1456.34	174.076
1453.71	159.725
1451.08	171.045
1448.45	133.915
1445.82	182.258
1443.18	185.01
1440.55	167.845
1437.91	170.601
1435.27	173.354
1432.63	133.498
1429.99	161.818
1427.35	156.059
1424.7	184.337
1422.06	158.731
1419.41	184.145
1416.76	169.891
1414.11	127.352
1411.46	130.114
1408.81	161.145
1406.16	172.363
1403.5	141.208
1400.85	186.297
1398.19	166.451
1395.53	124.068
1392.87	171.914
1390.2	169.007
1387.54	177.365
1384.88	163.203
1382.21	177.18
1379.54	160.222
1376.87	188.232
1374.2	174.094
1371.53	188.036
1368.86	179.522
1366.18	176.625
1363.51	198.949
1360.83	184.842
1358.15	193.143
1355.47	167.862
1352.79	192.941
1350.11	162.097
1347.42	178.772
1344.73	175.887
1342.05	195.327
1339.36	225.903
1336.67	181.185
1333.98	189.448
1331.28	180.995
1328.59	211.514
1325.89	183.587
1323.2	211.292
1320.5	177.837
1317.8	208.293
1315.1	155.444
1312.39	174.783
1309.69	199.647
1306.98	191.227
1304.28	163.427
1301.57	182.721
1298.86	196.46
1296.15	165.935
1293.43	196.254
1290.72	143.659
1288	179.48
1285.29	193.184
1282.57	209.632
1279.85	176.44
1277.13	173.591
1274.4	154.222
1271.68	145.883
1268.95	162.313
1266.23	151.229
1263.5	145.653
1260.77	181.283
1258.04	134.518
1255.3	164.629
1252.57	161.8
1249.83	183.642
1247.1	164.369
1244.36	161.544
1241.62	150.512
1238.88	169.579
1236.13	131.218
1233.39	163.935
1230.64	172.041
1227.89	185.597
1225.15	144.58
1222.4	169.042
1219.64	152.602
1216.89	138.904
1214.14	157.885
1211.38	160.522
1208.62	135.964
1205.86	105.996
1203.1	162.984
1200.34	141.178
1197.58	130.249
1194.81	154.589
1192.05	165.349
1189.28	157.134
1186.51	165.174
1183.74	138.023
1180.97	156.884
1178.19	164.911
1175.42	170.228
1172.64	162.036
1169.86	161.95
1167.08	156.468
1164.3	164.474
1161.52	145.523
1158.73	153.526
1155.95	134.6
1153.16	134.529
1150.37	153.281
1147.58	153.2
1144.79	196.099
1142	158.406
1139.2	177.106
1136.41	147.51
1133.61	128.667
1130.81	171.465
1128.01	190.118
1125.21	179.311
1122.41	197.94
1119.6	181.794
1116.8	179.025
1113.99	173.588
1111.18	170.826
1108.37	168.068
1105.55	181.309
1102.74	170.553
1099.93	205.087
1097.11	199.654
1094.29	183.583
1091.47	172.848
1088.65	164.783
1085.83	175.32
1083	169.917
1080.18	156.558
1077.35	167.083
1074.52	185.548
1071.69	172.203
1068.86	156.224
1066.02	153.494
1063.19	150.766
1060.35	148.042
1057.51	187.596
1054.67	184.854
1051.83	203.231
1048.99	168.829
1046.15	195.104
1043.3	181.824
1040.45	194.895
1037.6	178.996
1034.75	181.531
1031.9	184.063
1029.05	173.452
1026.19	181.239
1023.34	186.392
1020.48	162.678
1017.62	173.08
1014.76	199.197
1011.9	185.992
1009.03	206.838
1006.17	193.643
1003.3	198.77
1000.43	164.681
997.562	180.268
994.69	154.059
991.817	169.635
988.942	232.144
986.066	195.522
983.188	179.783
980.308	169.27
977.427	190.001
974.545	241.925
971.66	246.995
968.775	348.205
965.887	454.5
962.999	578.85
960.108	627.831
957.216	471.916
954.323	352.45
951.428	315.998
948.531	248.52
945.633	214.75
942.733	219.806
939.832	235.195
936.929	185.987
934.024	180.723
931.118	159.983
928.211	177.949
925.302	172.698
922.391	195.79
919.478	180.235
916.565	167.271
913.649	164.608
910.732	192.796
907.813	190.122
904.893	174.612
901.971	184.784
899.048	171.858
896.123	182.02
893.196	192.17
890.268	181.822
887.339	204.759
884.407	171.393
881.474	189.197
878.54	171.207
875.604	181.33
872.666	193.994
869.727	193.889
866.786	191.234
863.843	188.582
860.899	203.761
857.953	211.287
855.006	249.336
852.057	292.429
849.107	228.733
846.155	193.047
843.201	210.713
840.246	241.047
837.289	172.445
834.33	197.697
831.37	235.587
828.408	232.927
825.445	169.539
822.48	171.976
819.513	174.41
816.545	169.262
813.575	156.545
810.604	164.03
807.631	163.941
804.656	158.81
801.68	176.359
798.702	166.191
795.722	158.55
792.741	171.04
789.758	165.919
786.773	173.366
783.787	160.715
780.8	153.098
777.81	153.014
774.819	162.959
771.827	137.813
768.832	147.755
765.836	137.662
762.839	162.602
759.84	165.014
756.839	159.926
753.836	172.325
750.832	162.246
747.826	149.684
744.819	162.069
741.81	171.948
738.799	166.872
735.787	159.313
732.773	159.226
729.757	166.598
726.74	159.051
723.721	171.383
720.7	158.876
717.678	146.384
714.654	163.661
711.628	158.615
708.601	151.097
705.572	153.489
702.541	183.096
699.509	158.266
696.475	140.878
693.439	180.324
690.402	202.444
687.363	177.658
684.322	157.831
681.28	182.392
678.236	157.658
675.19	164.957
672.143	157.484
669.094	177.072
666.043	201.554
662.991	176.877
659.936	164.503
656.881	164.412
653.823	179.037
650.764	196.096
647.703	178.839
644.641	188.534
641.576	166.406
638.511	166.314
635.443	161.333
632.374	185.675
629.303	175.805
626.23	178.149
623.155	202.441
620.079	180.389
617.002	170.544
613.922	204.54
610.841	197.126
607.758	206.746
604.673	184.753
601.587	204.087
598.499	191.833
595.409	208.715
592.318	225.578
589.224	203.635
586.129	196.254
583.033	220.36
579.935	210.557
576.834	200.765
573.733	183.731
570.629	178.797
567.524	214.92
564.417	205.146
561.308	217.093
558.198	188.043
555.086	171.072
551.972	202.283
548.856	199.764
545.739	197.247
542.62	185.117
539.499	206.639
536.376	199.319
533.252	192.008
530.126	201.496
526.998	187
523.869	162.934
520.738	177.212
517.605	177.113
514.47	160.27
511.333	191.261
508.195	167.26
505.055	202.988
501.913	200.488
498.77	176.522
495.625	174.039
492.478	183.473
489.329	173.845
486.178	178.508
483.026	173.651
479.872	171.176
476.716	168.704
473.558	185.234
470.399	187.503
467.238	206.376
464.075	206.26
460.91	189.558
457.744	203.661
454.576	215.381
451.406	231.819
448.234	226.961
445.061	229.197
441.885	214.899
438.708	214.779
435.529	257.118
432.349	228.683
429.166	193.212
425.982	233.137
422.796	216.531
419.608	242.284
416.419	188.076
413.227	202.068
410.034	192.562
406.839	206.536
403.642	190
400.444	391.508
397.243	222.589
394.041	213.097
390.837	189.573
387.631	184.788
384.424	191.697
381.214	207.945
378.003	170.465
374.79	193.708
371.575	184.268
368.359	184.165
365.14	181.731
361.92	181.629
358.698	188.508
355.474	204.683
352.248	202.243
349.021	197.483
345.791	190.405
342.56	194.939
339.327	164.677
336.092	203.991
332.856	192.292
329.617	206.076
326.377	178.19
323.135	159.587
319.891	171.054
316.645	187.129
313.397	228.584
310.148	198.455
306.897	214.487
303.643	209.756
300.388	216.548
297.132	218.728
293.873	211.701
290.612	227.68
287.35	220.655
284.086	179.181
280.82	208.926
277.552	195.04
274.282	224.742
271.01	226.906
267.737	222.196
264.461	219.781
261.184	210.503
257.905	219.531
254.624	207.979
251.341	221.566
248.057	226.006
244.77	271.509
241.482	214.347
238.191	241.573
234.899	225.492
231.605	241.299
228.309	229.786
225.011	234.203
221.712	247.704
218.41	233.936
215.107	206.564
211.801	242.744
208.494	249.408
205.185	217.541
201.874	242.329
198.561	248.982
195.246	275.986
191.93	260.002
188.611	257.594
185.291	239.381
181.968	264.071
178.644	259.409
175.318	247.988
171.99	243.34
168.66	240.95
165.328	225.058
161.994	240.674
158.659	272.009
155.321	276.346
151.982	278.434
148.64	271.542
145.297	316.244
141.952	309.338
138.605	315.882
135.256	315.701
131.905	319.995
128.552	306.393
125.197	321.864
121.84	339.55
118.482	341.588
115.121	336.929
111.758	359.036
108.394	325.399
105.028	345.26
101.659	325.025
100.536	316.06