File: Spicy-Raman/model_train_and_validate/Raman_Data/polyamide/nylon/Set1Sample2_7(dark_spot) - 1_.txt
3201.19	-12.6336
3199.41	21.0497
3197.63	21.0402
3195.85	25.2368
3194.06	4.20422
3192.28	25.2139
3190.49	12.6012
3188.71	8.39701
3186.92	25.1796
3185.13	20.9735
3183.34	8.38559
3181.55	8.38178
3179.76	8.37798
3177.97	33.4967
3176.18	0
3174.39	4.18329
3172.6	8.36278
3170.8	25.0769
3169.01	-8.35519
3167.21	16.7028
3165.41	12.5214
3163.62	0
3161.82	16.68
3160.02	12.5043
3158.22	12.4987
3156.42	8.32865
3154.62	12.4873
3152.81	16.6422
3151.01	-20.7932
3149.21	8.31351
3147.4	20.7743
3145.6	0
3143.79	12.4533
3141.98	0
3140.17	8.29461
3138.37	8.29084
3136.56	-12.4306
3134.75	24.8499
3132.93	0
3131.12	4.13787
3129.31	16.544
3127.49	-4.1341
3125.68	16.5289
3123.86	8.26068
3122.05	12.3854
3120.23	4.12657
3118.41	8.24938
3116.59	24.7369
3114.77	8.24186
3112.95	20.5953
3111.13	28.8202
3109.31	32.9224
3107.49	16.4537
3105.66	8.22308
3103.84	24.658
3102.01	-12.3234
3100.19	4.10591
3098.36	-16.4161
3096.53	12.3065
3094.7	20.5014
3092.87	0
3091.04	-16.3862
3089.21	4.09467
3087.38	0
3085.55	-8.18186
3083.71	-12.2672
3081.88	20.4359
3080.04	4.08532
3078.21	-12.2504
3076.37	24.4895
3074.53	4.07972
3072.69	16.3114
3070.85	-8.15197
3069.01	-4.07412
3067.17	4.07225
3065.33	8.14078
3063.48	8.13705
3061.64	12.2
3059.79	20.324
3057.95	8.12587
3056.1	8.12215
3054.26	4.05921
3052.41	4.05735
3050.56	16.222
3048.71	4.05364
3046.86	-8.10355
3045.01	-4.04992
3043.15	8.09612
3041.3	16.1848
3039.45	-4.04435
3037.59	16.17
3035.73	8.08128
3033.88	16.1551
3032.02	-8.07386
3030.16	20.1754
3028.3	12.0997
3026.44	8.06274
3024.58	0
3022.72	4.02767
3020.86	36.2324
3018.99	16.0959
3017.13	8.04424
3015.26	12.0608
3013.4	36.1658
3011.53	-16.0663
3009.66	20.0736
3007.79	12.0386
3005.92	28.0773
3004.05	8.01838
3002.18	-4.00735
3000.31	16.022
2998.44	24.022
2996.56	32.0145
2994.69	3.99997
2992.81	31.9851
2990.94	7.99258
2989.06	3.99445
2987.18	15.9704
2985.3	15.9631
2983.42	11.9668
2981.54	15.9484
2979.66	35.8673
2977.78	7.96684
2975.89	15.9263
2974.01	31.838
2972.13	15.9116
2970.24	15.9043
2968.35	31.7939
2966.46	19.862
2964.58	-27.794
2962.69	39.6874
2960.8	7.93382
2958.91	-7.93016
2957.01	11.8897
2955.12	11.8843
2953.23	-3.95959
2951.33	23.7465
2949.44	23.7356
2947.54	23.7246
2945.64	15.8091
2943.74	39.5045
2941.84	27.6403
2939.94	43.4148
2938.04	15.7799
2936.14	7.88629
2934.24	-3.94132
2932.34	23.637
2930.43	39.3768
2928.53	7.87171
2926.62	23.6042
2924.71	27.5255
2922.81	23.5823
2920.9	19.6428
2918.99	7.8535
2917.08	19.6247
2915.16	23.5387
2913.25	27.4491
2911.34	58.7922
2909.43	11.753
2907.51	31.3268
2905.59	23.4842
2903.68	7.82443
2901.76	19.552
2899.84	46.903
2897.92	7.81355
2896	31.2397
2894.08	31.2252
2892.16	23.408
2890.24	7.79905
2888.31	42.8749
2886.39	11.6877
2884.46	23.3646
2882.53	35.0306
2880.61	11.6714
2878.68	23.332
2876.75	15.5475
2874.82	23.3104
2872.89	42.7158
2870.96	34.933
2869.02	19.3982
2867.09	19.3892
2865.15	38.7604
2863.22	46.4908
2861.28	38.7243
2859.35	46.4475
2857.41	15.4753
2855.47	7.73405
2853.53	23.1914
2851.59	34.7708
2849.64	34.7546
2847.7	23.159
2845.76	3.85803
2843.81	0
2841.87	23.1266
2839.92	19.2632
2837.97	23.1051
2836.03	38.4905
2834.08	23.0835
2832.13	34.6091
2830.18	11.531
2828.22	7.68375
2826.27	7.68016
2824.32	15.3532
2822.36	0
2820.41	7.66942
2818.45	26.8304
2816.49	34.4802
2814.54	19.1467
2812.58	0
2810.62	19.1288
2808.66	-3.82398
2806.69	11.4666
2804.73	15.2816
2802.77	19.0931
2800.8	11.4505
2798.84	-3.81505
2796.87	38.1326
2794.9	15.2459
2792.93	30.4776
2790.96	30.4633
2788.99	34.2552
2787.02	22.8261
2785.05	11.4077
2783.08	3.80079
2781.1	18.9951
2779.13	26.5806
2777.15	18.9773
2775.18	0
2773.2	26.5433
2771.22	-3.79012
2769.24	26.5184
2767.26	3.78657
2765.28	15.1392
2763.3	22.6981
2761.31	26.4687
2759.33	18.8974
2757.35	3.7777
2755.36	7.55185
2753.37	22.6449
2751.39	7.54477
2749.4	18.8531
2747.41	15.0754
2745.42	11.3012
2743.42	18.8265
2741.43	18.8177
2739.44	3.76177
2737.44	15.04
2735.45	0
2733.45	26.2953
2731.46	30.0376
2729.46	26.2706
2727.46	7.50234
2725.46	22.4964
2723.46	14.9906
2721.46	7.49176
2719.45	11.2324
2717.45	11.2271
2715.44	7.48119
2713.44	48.6048
2711.43	48.582
2709.42	3.73531
2707.42	29.8684
2705.41	7.46359
2703.4	18.6502
2701.38	26.098
2699.37	11.1796
2697.36	33.5229
2695.34	22.3381
2693.33	22.3275
2691.31	26.0365
2689.3	22.3065
2687.28	3.71599
2685.26	37.1424
2683.24	14.85
2681.22	37.1074
2679.2	33.3809
2677.17	14.8289
2675.15	40.7603
2673.13	40.7411
2671.1	18.5099
2669.07	11.1007
2667.05	14.7939
2665.02	11.0902
2662.99	14.78
2660.96	22.1595
2658.93	25.8405
2656.89	7.37951
2654.86	22.1281
2652.83	22.1176
2650.79	36.8452
2648.76	22.0967
2646.72	33.1293
2644.68	14.7172
2642.64	44.1306
2640.6	18.3791
2638.56	36.7407
2636.52	33.051
2634.47	11.0118
2632.43	33.0197
2630.39	14.6685
2628.34	21.9922
2626.29	29.3091
2624.25	10.9857
2622.2	36.6016
2620.15	40.2427
2618.1	14.6268
2616.04	25.5847
2613.99	32.879
2611.94	7.30298
2609.88	36.4976
2607.83	29.1842
2605.77	18.2315
2603.71	36.4456
2601.66	36.4283
2599.6	36.411
2597.54	21.8362
2595.47	40.0141
2593.41	32.7232
2591.35	32.7077
2589.28	21.7947
2587.22	10.8922
2585.15	25.403
2583.09	36.2728
2581.02	29.0044
2578.95	25.3668
2576.88	28.9768
2574.81	36.2038
2572.73	21.7119
2570.66	28.9355
2568.59	32.5369
2566.51	39.7484
2564.43	39.7295
2562.36	21.6603
2560.28	7.21666
2558.2	36.0661
2556.12	46.8636
2554.04	18.0159
2551.96	39.616
2549.87	17.9987
2547.79	7.19604
2545.7	25.1741
2543.62	17.9729
2541.53	14.3715
2539.44	17.9558
2537.35	28.7155
2535.26	17.9386
2533.17	25.1021
2531.08	17.9215
2528.99	32.2433
2526.89	7.16176
2524.8	32.2125
2522.7	35.7746
2520.6	28.606
2518.51	21.4442
2516.41	35.7233
2514.31	53.5593
2512.21	24.9824
2510.1	32.1049
2508	35.655
2505.9	14.2552
2503.79	17.8104
2501.69	24.9227
2499.58	28.4694
2497.47	10.6709
2495.36	3.55527
2493.25	10.6607
2491.14	28.4149
2489.03	42.602
2486.91	21.2908
2484.8	10.6403
2482.68	21.2704
2480.57	31.8902
2478.45	28.3333
2476.33	14.1598
2474.21	49.5357
2472.09	42.4388
2469.97	24.7441
2467.85	17.6659
2465.73	17.6574
2463.6	52.9467
2461.48	24.6966
2459.35	31.7375
2457.22	52.8705
2455.09	42.276
2452.96	28.1705
2450.83	21.1177
2448.7	21.1076
2446.57	38.6786
2444.43	35.1454
2442.3	21.0771
2440.16	28.0893
2438.03	24.5663
2435.89	17.5389
2433.75	49.0854
2431.61	28.0353
2429.47	66.5518
2427.33	28.0083
2425.19	52.4903
2423.04	27.9813
2420.9	41.9518
2418.75	41.9316
2416.6	41.9113
2414.46	38.4002
2412.31	31.4032
2410.16	20.9254
2408.01	34.8588
2405.85	20.9052
2403.7	52.2378
2401.55	48.7317
2399.39	41.7499
2397.23	34.7748
2395.08	34.758
2392.92	27.793
2390.76	27.7796
2388.6	55.5323
2386.44	17.3455
2384.27	10.4022
2382.11	27.7259
2379.95	38.1047
2377.78	38.0863
2375.61	31.1464
2373.44	41.5085
2371.28	62.2327
2369.11	27.6456
2366.93	62.1725
2364.76	55.2377
2362.59	41.4082
2360.42	37.9391
2358.24	48.2628
2356.06	24.1197
2353.89	34.44
2351.71	34.4234
2349.53	27.5254
2347.35	48.146
2345.17	48.1227
2342.98	68.7134
2340.8	41.208
2338.62	24.0264
2336.43	44.5988
2334.24	30.8611
2332.05	37.7008
2329.87	65.088
2327.68	37.6642
2325.48	30.8012
2323.29	13.6828
2321.1	51.2855
2318.9	41.0085
2316.71	20.4943
2314.51	30.7265
2312.32	58.0107
2310.12	44.3396
2307.92	40.909
2305.72	23.852
2303.51	34.0577
2301.31	37.4452
2299.11	44.2319
2296.9	30.6072
2294.7	16.9957
2292.49	37.3724
2290.28	61.1251
2288.07	33.9418
2285.86	33.9253
2283.65	57.6449
2281.44	54.2276
2279.22	54.2012
2277.01	40.6311
2274.79	47.3798
2272.58	43.9741
2270.36	47.3337
2268.14	47.3106
2265.92	30.3991
2263.7	47.2644
2261.48	43.867
2259.25	43.8456
2257.03	57.3086
2254.8	64.0195
2252.58	23.5746
2250.35	43.76
2248.12	47.1032
2245.89	26.903
2243.66	33.6123
2241.43	47.0342
2239.19	57.085
2236.96	40.2756
2234.72	46.9652
2232.49	36.8832
2230.25	26.811
2228.01	43.5466
2225.77	46.8734
2223.53	30.1182
2221.29	43.4827
2219.05	66.8638
2216.8	26.7324
2214.56	63.4584
2212.31	56.7508
2210.06	43.3764
2207.81	43.3551
2205.57	43.3339
2203.31	49.9761
2201.06	46.6215
2198.81	59.9126
2196.56	56.5564
2194.3	43.2278
2192.04	29.9122
2189.79	39.8634
2187.53	73.0471
2185.27	59.7364
2183.01	26.5365
2180.75	49.7315
2178.48	43.0795
2176.22	59.6192
2173.95	79.4532
2171.69	46.3249
2169.42	52.9168
2167.15	42.9737
2164.88	46.2567
2162.61	66.0485
2160.34	59.4144
2158.07	46.1885
2155.79	36.2731
2153.52	69.2145
2151.24	69.1805
2148.96	46.0976
2146.69	46.0749
2144.41	85.5256
2142.13	75.62
2139.84	59.1517
2137.56	62.4072
2135.28	75.5083
2132.99	55.783
2130.71	49.196
2128.42	55.728
2126.13	42.5945
2123.84	68.7726
2121.55	62.1921
2119.26	58.8898
2116.96	52.3206
2114.67	58.8317
2112.37	52.269
2110.08	78.3648
2107.78	58.7446
2105.48	45.6677
2103.18	52.1658
2100.88	68.4338
2098.58	68.4
2096.27	78.1328
2093.97	68.3324
2091.66	65.0463
2089.36	55.262
2087.05	38.9892
2084.74	90.9298
2082.43	55.18
2080.12	58.397
2077.81	45.3974
2075.49	48.616
2073.18	61.5498
2070.86	77.7086
2068.54	58.2526
2066.23	67.9277
2063.91	58.1949
2061.59	42.0088
2059.26	58.1372
2056.94	58.1084
2054.62	54.8529
2052.29	64.5009
2049.97	90.2564
2047.64	45.1058
2045.31	48.3037
2042.98	61.1543
2040.65	73.9921
2038.32	51.4472
2035.98	44.994
2033.65	77.0942
2031.31	57.7919
2028.98	51.3451
2026.64	64.1495
2024.3	57.7058
2021.96	54.4728
2019.62	60.8511
2017.28	76.8264
2014.93	60.7906
2012.59	63.9583
2010.24	89.4971
2007.89	83.0631
2005.55	92.6011
2003.2	67.0226
2000.84	54.2294
1998.49	66.9559
1996.14	89.23
1993.79	70.0744
1991.43	79.5903
1989.07	82.7327
1986.72	63.6088
1984.36	92.1867
1982	79.4317
1979.64	69.865
1977.27	63.482
1974.91	82.4854
1972.54	88.7861
1970.18	91.9111
1967.81	88.6975
1965.44	82.3208
1963.07	60.1275
1960.7	101.217
1958.33	88.5204
1955.96	78.9966
1953.58	72.6405
1951.21	72.6042
1948.83	85.1884
1946.45	91.4529
1944.07	69.3434
1941.69	81.9103
1939.31	72.4228
1936.93	75.5338
1934.55	81.7873
1932.16	100.611
1929.77	91.133
1927.39	87.9464
1925	91.0418
1922.61	72.1694
1920.22	94.0868
1917.83	78.3663
1915.43	87.7263
1913.04	112.734
1910.64	87.6383
1908.24	78.2093
1905.85	87.5505
1903.45	128.135
1901.05	103.081
1898.64	56.1977
1896.24	81.1338
1893.84	109.164
1891.43	77.9349
1889.03	96.5907
1886.62	105.885
1884.21	115.17
1881.8	99.5563
1879.39	93.2871
1876.97	71.4842
1874.56	118.045
1872.14	83.8318
1869.73	96.2029
1867.31	93.0528
1864.89	108.507
1862.47	86.7618
1860.05	102.204
1857.63	86.6745
1855.2	105.195
1852.78	98.9568
1850.35	117.452
1847.93	89.5892
1845.5	80.2809
1843.07	117.274
1840.64	114.131
1838.2	117.156
1835.77	101.69
1833.34	98.5584
1830.9	86.1951
1828.46	110.766
1826.02	98.4092
1823.59	126.023
1821.14	101.382
1818.7	132.037
1816.26	131.97
1813.81	101.228
1811.37	113.441
1808.92	116.448
1806.47	88.8235
1804.02	101.024
1801.57	122.391
1799.12	134.562
1796.67	131.438
1794.21	122.206
1791.76	112.983
1789.3	119.03
1786.84	109.818
1784.38	125.007
1781.92	112.754
1779.46	140.11
1777	97.4185
1774.53	115.626
1772.07	127.732
1769.6	97.2704
1767.13	142.793
1764.66	106.282
1762.19	97.1225
1759.72	127.409
1757.25	109.152
1754.77	127.279
1752.3	130.244
1749.82	139.26
1747.34	105.905
1744.86	114.924
1742.38	139.047
1739.9	163.147
1737.42	150.985
1734.93	132.799
1732.45	132.732
1729.96	150.755
1727.47	126.57
1724.98	147.589
1722.49	114.399
1720	123.367
1717.5	165.409
1715.01	129.254
1712.51	147.214
1710.02	123.116
1707.52	141.062
1705.02	143.989
1702.52	119.93
1700.01	152.833
1697.51	176.716
1695.01	164.652
1692.5	158.583
1689.99	152.521
1687.48	173.367
1684.97	161.328
1682.46	146.316
1679.95	170.117
1677.44	158.098
1674.92	155.036
1672.41	154.957
1669.89	139.986
1667.37	139.914
1664.85	166.621
1662.33	166.536
1659.8	157.534
1657.28	139.628
1654.75	160.342
1652.23	130.582
1649.7	154.245
1647.17	171.955
1644.64	162.977
1642.11	154.009
1639.57	171.691
1637.04	130.181
1634.5	150.815
1631.97	171.427
1629.43	141.798
1626.89	129.915
1624.35	129.848
1621.81	197.622
1619.26	123.819
1616.72	159.114
1614.17	182.593
1611.62	144.233
1609.07	161.811
1606.52	164.669
1603.97	158.706
1601.42	170.375
1598.87	170.287
1596.31	179.003
1593.75	167.179
1591.2	181.75
1588.64	164.077
1586.08	146.422
1583.51	160.982
1580.95	169.675
1578.39	154.968
1575.82	157.811
1573.25	160.65
1570.68	166.407
1568.11	148.813
1565.54	151.653
1562.97	169.064
1560.4	154.41
1557.82	198.009
1555.25	165.893
1552.67	183.261
1550.09	165.722
1547.51	206.319
1544.93	159.742
1542.34	185.786
1539.76	174.084
1537.17	197.194
1534.59	139.124
1532	170.918
1529.41	170.83
1526.82	182.317
1524.22	167.761
1521.63	161.892
1519.03	153.14
1516.44	164.613
1513.84	184.733
1511.24	193.292
1508.64	187.425
1506.04	155.626
1503.43	161.307
1500.83	164.102
1498.22	184.16
1495.62	186.94
1493.01	206.965
1490.4	203.985
1487.79	195.265
1485.17	180.813
1482.56	183.588
1479.94	189.227
1477.33	166.204
1474.71	197.623
1472.09	188.933
1469.47	185.974
1466.85	194.456
1464.22	197.213
1461.6	214.251
1458.97	219.85
1456.34	222.59
1453.71	193.952
1451.08	208.105
1448.45	225.092
1445.82	182.258
1443.18	219.165
1440.55	190.603
1437.91	207.564
1435.27	213.14
1432.63	204.508
1429.99	210.079
1427.35	170.246
1424.7	221.204
1422.06	198.413
1419.41	212.475
1416.76	226.522
1414.11	189.613
1411.46	217.8
1408.81	223.341
1406.16	186.491
1403.5	203.339
1400.85	214.523
1398.19	220.054
1395.53	217.119
1392.87	202.915
1390.2	205.626
1387.54	208.334
1384.88	219.48
1382.21	213.741
1379.54	233.305
1376.87	224.755
1374.2	261.141
1371.53	246.972
1368.86	218.793
1366.18	227.089
1363.51	243.783
1360.83	187.643
1358.15	240.729
1355.47	243.4
1352.79	251.662
1350.11	229.172
1347.42	234.638
1344.73	234.515
1342.05	251.135
1339.36	231.481
1336.67	234.147
1333.98	217.308
1331.28	214.41
1328.59	217.08
1325.89	253.127
1323.2	216.852
1320.5	233.411
1317.8	238.843
1315.1	216.511
1312.39	258.012
1309.69	232.921
1306.98	221.713
1304.28	240.986
1301.57	218.711
1298.86	249.034
1296.15	185.294
1293.43	226.659
1290.72	232.065
1288	220.898
1285.29	204.223
1282.57	215.149
1279.85	234.334
1277.13	225.944
1274.4	209.301
1271.68	222.954
1268.95	209.081
1266.23	181.475
1263.5	203.364
1260.77	195.017
1258.04	203.15
1255.3	156.398
1252.57	197.451
1249.83	216.533
1247.1	230.116
1244.36	216.305
1241.62	202.508
1238.88	183.255
1236.13	229.631
1233.39	180.329
1230.64	169.31
1227.89	188.326
1225.15	201.866
1222.4	179.948
1219.64	196.203
1216.89	196.099
1214.14	155.163
1211.38	155.081
1208.62	190.349
1205.86	192.966
1203.1	165.7
1200.34	203.622
1197.58	200.801
1194.81	203.406
1192.05	170.771
1189.28	189.645
1186.51	208.498
1183.74	165.087
1180.97	162.294
1178.19	213.574
1175.42	164.824
1172.64	175.539
1169.86	191.641
1167.08	183.446
1164.3	169.867
1161.52	194.03
1158.73	231.635
1155.95	193.824
1153.16	188.34
1150.37	198.996
1147.58	215.017
1144.79	212.216
1142	209.418
1139.2	187.84
1136.41	211.878
1133.61	184.959
1130.81	184.861
1128.01	195.473
1125.21	206.074
1122.41	216.664
1119.6	213.875
1116.8	229.793
1113.99	251.035
1111.18	234.886
1108.37	213.419
1105.55	202.64
1102.74	229.181
1099.93	218.405
1097.11	215.626
1094.29	188.905
1091.47	194.122
1088.65	199.334
1085.83	212.509
1083	207.086
1080.18	206.975
1077.35	196.256
1074.52	206.754
1071.69	206.643
1068.86	182.702
1066.02	198.483
1063.19	185.152
1060.35	216.776
1057.51	195.522
1054.67	174.291
1051.83	179.477
1048.99	216.312
1046.15	216.196
1043.3	213.445
1040.45	200.162
1037.6	213.216
1034.75	197.317
1031.9	215.617
1029.05	215.501
1026.19	220.639
1023.34	196.893
1020.48	191.54
1017.62	183.57
1014.76	188.713
1011.9	204.33
1009.03	178.038
1006.17	222.428
1003.3	227.539
1000.43	214.347
997.562	211.619
994.69	190.615
991.817	182.684
988.942	224.319
986.066	200.736
983.188	198.022
980.308	187.499
977.427	223.836
974.545	231.52
971.66	262.594
968.775	324.818
965.887	441.514
962.999	511.361
960.108	524.057
957.216	479.694
954.323	362.816
951.428	308.227
948.531	274.407
945.633	248.386
942.733	214.634
939.832	245.533
936.929	204.07
934.024	198.796
931.118	170.304
928.211	196.002
925.302	201.051
922.391	200.942
919.478	169.936
916.565	190.431
913.649	213.476
910.732	182.514
907.813	197.83
904.893	207.994
901.971	195.049
899.048	220.594
896.123	197.402
893.196	184.483
890.268	209.992
887.339	189.402
884.407	196.974
881.474	199.424
878.54	209.537
875.604	209.423
872.666	227.177
869.727	239.81
866.786	219.281
863.843	224.259
860.899	201.214
857.953	234.198
855.006	206.084
852.057	211.058
849.107	256.69
846.155	228.609
843.201	218.33
840.246	228.36
837.289	205.412
834.33	215.439
831.37	225.454
828.408	207.609
825.445	204.965
822.48	192.208
819.513	224.963
816.545	197.051
813.575	191.894
810.604	151.413
807.631	189.163
804.656	176.455
801.68	186.437
798.702	183.817
795.722	191.267
792.741	181.101
789.758	175.974
786.773	180.903
783.787	190.849
780.8	153.098
777.81	188.132
774.819	210.593
771.827	180.409
768.832	182.815
765.836	202.738
762.839	185.117
759.84	150.012
756.839	179.916
753.836	172.325
750.832	212.168
747.826	182.115
744.819	194.482
741.81	181.916
738.799	201.741
735.787	204.12
732.773	176.641
729.757	203.896
726.74	208.754
723.721	166.415
720.7	193.631
717.678	223.297
714.654	190.938
711.628	210.66
708.601	200.636
705.572	180.721
702.541	200.416
699.509	220.089
696.475	242.212
693.439	180.324
690.402	199.975
687.363	209.735
684.322	177.56
681.28	207.04
678.236	204.462
675.19	179.729
672.143	214.08
669.094	201.665
666.043	196.638
662.991	201.443
659.936	206.242
656.881	201.221
653.823	193.752
650.764	198.548
647.703	215.587
644.641	195.88
641.576	205.56
638.511	215.23
635.443	205.333
632.374	219.878
629.303	200.223
626.23	195.231
623.155	202.441
620.079	207.204
617.002	231.453
613.922	224.02
610.841	216.595
607.758	214.043
604.673	199.338
601.587	225.954
598.499	235.542
595.409	211.142
592.318	261.962
589.224	230.302
586.129	281.055
583.033	273.634
579.935	246.86
576.834	246.723
573.733	234.499
570.629	212.623
567.524	229.409
564.417	241.349
561.308	207.445
558.198	272.421
555.086	204.805
551.972	235.997
548.856	226.238
545.739	221.301
542.62	199.541
539.499	211.444
536.376	220.932
533.252	208.809
530.126	213.49
526.998	189.397
523.869	242.006
520.738	198.765
517.605	232.162
514.47	232.033
511.333	215.168
508.195	210.269
505.055	205.376
501.913	190.941
498.77	219.459
495.625	224.105
492.478	233.511
489.329	207.185
486.178	192.788
483.026	206.953
479.872	225.857
476.716	206.722
473.558	185.234
470.399	242.093
467.238	251.446
464.075	222.856
460.91	206.145
457.744	236.815
454.576	224.849
451.406	274.398
448.234	245.874
445.061	252.825
441.885	233.791
438.708	250.182
435.529	242.965
432.349	268.762
429.166	275.68
425.982	310.849
422.796	275.371
419.608	275.216
416.419	242.148
413.227	202.068
410.034	230.135
406.839	258.169
403.642	246.296
400.444	267.257
397.243	257.734
394.041	236.514
390.837	250.423
387.631	222.213
384.424	245.466
381.214	238.319
378.003	231.179
374.79	261.389
371.575	221.589
368.359	263.425
365.14	232.988
361.92	218.886
358.698	214.108
355.474	262.832
352.248	227.814
349.021	234.656
345.791	234.523
342.56	225.108
339.327	220.342
336.092	245.717
332.856	243.261
329.617	233.862
326.377	222.159
323.135	235.911
319.891	249.646
316.645	242.575
313.397	244.746
310.148	258.454
306.897	249.082
303.643	251.246
300.388	246.496
297.132	248.659
293.873	280.734
290.612	239.179
287.35	268.923
284.086	229.719
280.82	266.323
277.552	254.699
274.282	259.141
271.01	288.79
267.737	249.684
264.461	274.726
261.184	258.553
257.905	235.539
254.624	285.685
251.341	287.807
248.057	285.361
244.77	276.072
241.482	303.279
238.191	289.432
234.899	289.268
231.605	259.51
228.309	268.463
225.011	266.036
221.712	284.065
218.41	311.158
215.107	297.361
211.801	283.58
208.494	281.151
205.185	308.183
201.874	321.596
198.561	305.568
195.246	314.443
191.93	282.611
188.611	284.709
185.291	300.355
181.968	311.468
178.644	288.733
175.318	279.551
171.99	308.682
168.66	299.498
165.328	301.577
161.994	310.402
158.659	301.233
155.321	305.554
151.982	345.797
148.64	316.425
145.297	327.458
141.952	345.203
138.605	327.083
135.256	367.198
131.905	331.184
128.552	344.413
125.197	388.919
121.84	357.421
118.482	401.868
115.121	406.1
111.758	385.797
108.394	410.092
105.028	360.852
101.659	351.74
100.536	333.866