File: Spicy-Raman/model_train_and_validate/Raman_Data/polyamide/nylon/Set2Sample6_1 - 1_.txt
3201.19	122.125
3199.41	122.088
3197.63	92.5767
3195.85	113.565
3194.06	79.8802
3192.28	63.0347
3190.49	79.8078
3188.71	75.5731
3186.92	83.932
3185.13	92.2833
3183.34	100.627
3181.55	71.2452
3179.76	62.8349
3177.97	108.864
3176.18	79.5186
3174.39	25.0997
3172.6	75.265
3170.8	75.2308
3169.01	100.262
3167.21	108.568
3165.41	87.6498
3163.62	83.4381
3161.82	45.8701
3160.02	70.8579
3158.22	62.4933
3156.42	62.4649
3154.62	29.137
3152.81	74.8897
3151.01	74.8556
3149.21	62.3513
3147.4	78.9424
3145.6	78.9065
3143.79	49.813
3141.98	66.3871
3140.17	62.2096
3138.37	74.6176
3136.56	74.5836
3134.75	99.3995
3132.93	49.6771
3131.12	82.7575
3129.31	57.9038
3127.49	90.9503
3125.68	70.2478
3123.86	66.0854
3122.05	61.9268
3120.23	74.2783
3118.41	74.2445
3116.59	70.0878
3114.77	82.4186
3112.95	70.0239
3111.13	61.7576
3109.31	57.6141
3107.49	69.9281
3105.66	45.2269
3103.84	78.0836
3102.01	41.0779
3100.19	65.6946
3098.36	94.3928
3096.53	90.2476
3094.7	65.6046
3092.87	57.3778
3091.04	53.2551
3089.21	102.367
3087.38	85.9488
3085.55	45.0002
3083.71	85.8702
3081.88	69.4822
3080.04	40.8532
3078.21	73.5021
3076.37	65.3053
3074.53	65.2755
3072.69	61.1677
3070.85	93.7476
3069.01	57.0376
3067.17	52.9393
3065.33	56.9854
3063.48	73.2334
3061.64	60.9999
3059.79	109.75
3057.95	73.1329
3056.1	77.1604
3054.26	64.9474
3052.41	77.0897
3050.56	89.2209
3048.71	77.0191
3046.86	101.294
3045.01	93.1481
3043.15	76.9132
3041.3	72.8317
3039.45	72.7983
3037.59	117.232
3035.73	68.6908
3033.88	80.7757
3032.02	108.997
3030.16	88.7717
3028.3	52.4319
3026.44	100.784
3024.58	104.768
3022.72	96.6641
3020.86	100.645
3018.99	108.647
3017.13	112.619
3015.26	108.547
3013.4	92.4237
3011.53	132.547
3009.66	140.515
3007.79	112.361
3005.92	148.408
3004.05	164.377
3002.18	120.22
3000.31	152.209
2998.44	148.135
2996.56	148.067
2994.69	179.999
2992.81	155.927
2990.94	151.859
2989.06	171.761
2987.18	187.653
2985.3	235.455
2983.42	247.314
2981.54	239.226
2979.66	195.278
2977.78	242.989
2975.89	302.6
2974.01	290.521
2972.13	286.41
2970.24	294.23
2968.35	321.914
2966.46	357.517
2964.58	341.469
2962.69	357.187
2960.8	337.187
2958.91	364.787
2957.01	332.913
2955.12	384.257
2953.23	368.242
2951.33	383.903
2949.44	526.139
2947.54	482.4
2945.64	584.937
2943.74	549.112
2941.84	564.653
2939.94	686.742
2938.04	615.415
2936.14	674.278
2934.24	717.321
2932.34	626.38
2930.43	657.592
2928.53	657.287
2926.62	641.247
2924.71	633.086
2922.81	683.888
2920.9	726.785
2918.99	640.06
2917.08	655.464
2915.16	694.391
2913.25	745.046
2911.34	756.459
2909.43	705.179
2907.51	747.927
2905.59	778.892
2903.68	774.619
2901.76	680.41
2899.84	742.632
2897.92	734.473
2896	800.517
2894.08	768.92
2892.16	756.86
2890.24	811.102
2888.31	748.362
2886.39	845.412
2884.46	755.455
2882.53	794.027
2880.61	797.548
2878.68	781.623
2876.75	703.523
2874.82	617.724
2872.89	660.153
2870.96	714.186
2869.02	702.215
2867.09	686.378
2865.15	635.67
2863.22	774.847
2861.28	797.721
2859.35	836.056
2857.41	858.88
2855.47	908.751
2853.53	919.924
2851.59	846.09
2849.64	787.772
2847.7	663.891
2845.76	586.421
2843.81	458.892
2841.87	389.298
2839.92	346.738
2837.97	261.857
2836.03	280.981
2834.08	184.668
2832.13	184.582
2830.18	196.027
2828.22	176.726
2826.27	165.124
2824.32	168.885
2822.36	153.46
2820.41	176.397
2818.45	160.983
2816.49	172.401
2814.54	130.198
2812.58	133.964
2810.62	145.379
2808.66	130.015
2806.69	137.599
2804.73	114.612
2802.77	126.014
2800.8	110.688
2798.84	129.712
2796.87	129.651
2794.9	144.836
2792.93	118.101
2790.96	91.3899
2788.99	117.99
2787.02	102.717
2785.05	114.077
2783.08	140.629
2781.1	151.96
2779.13	117.714
2777.15	121.455
2775.18	106.223
2773.2	125.133
2771.22	106.123
2769.24	117.439
2767.26	117.384
2765.28	140.037
2763.3	128.623
2761.31	143.687
2759.33	154.958
2757.35	143.553
2755.36	166.141
2753.37	158.515
2751.39	181.074
2749.4	184.76
2747.41	180.904
2745.42	150.683
2743.42	161.908
2741.43	131.724
2739.44	195.612
2737.44	195.52
2735.45	214.219
2733.45	191.58
2731.46	214.018
2729.46	202.659
2727.46	202.563
2725.46	206.217
2723.46	217.363
2721.46	194.786
2719.45	194.694
2717.45	209.572
2715.44	175.808
2713.44	216.852
2711.43	171.905
2709.42	179.295
2707.42	201.612
2705.41	182.858
2703.4	160.392
2701.38	152.86
2699.37	156.514
2697.36	201.137
2695.34	156.367
2693.33	148.85
2691.31	163.658
2689.3	159.863
2687.28	141.208
2685.26	159.712
2683.24	129.937
2681.22	159.562
2679.2	207.703
2677.17	166.826
2675.15	140.808
2673.13	174.075
2671.1	173.993
2669.07	148.009
2667.05	125.749
2665.02	158.96
2662.99	147.8
2660.96	147.73
2658.93	177.192
2656.89	169.729
2654.86	151.208
2652.83	140.078
2650.79	165.803
2648.76	158.359
2646.72	169.328
2644.68	139.813
2642.64	176.522
2640.6	176.439
2638.56	146.963
2636.52	157.91
2634.47	150.494
2632.43	146.754
2630.39	157.686
2628.34	135.619
2626.29	186.846
2624.25	194.081
2622.2	153.727
2620.15	186.58
2618.1	153.581
2616.04	186.403
2613.99	164.395
2611.94	135.105
2609.88	113.143
2607.83	149.569
2605.77	182.315
2603.71	134.849
2601.66	156.642
2599.6	156.567
2597.54	160.132
2595.47	130.955
2593.41	127.257
2591.35	138.099
2589.28	138.033
2587.22	159.752
2585.15	152.418
2583.09	155.973
2581.02	184.903
2578.95	155.825
2576.88	159.373
2574.81	152.056
2572.73	180.933
2570.66	133.827
2568.59	180.761
2566.51	144.54
2564.43	180.588
2562.36	155.232
2560.28	137.116
2558.2	165.904
2556.12	173.035
2554.04	151.333
2551.96	172.87
2549.87	125.991
2547.79	125.931
2545.7	154.641
2543.62	133
2541.53	172.458
2539.44	179.558
2537.35	157.935
2535.26	143.509
2533.17	136.269
2531.08	157.709
2528.99	168.382
2526.89	143.235
2524.8	132.429
2522.7	153.831
2520.6	139.454
2518.51	135.813
2516.41	153.61
2514.31	164.249
2512.21	192.721
2510.1	206.898
2508	199.668
2505.9	142.552
2503.79	167.418
2501.69	178.019
2499.58	145.906
2497.47	170.735
2495.36	156.432
2493.25	181.232
2491.14	156.282
2489.03	152.657
2486.91	177.423
2484.8	159.604
2482.68	205.613
2480.57	187.798
2478.45	191.25
2476.33	155.758
2474.21	159.222
2472.09	190.975
2469.97	180.278
2467.85	166.059
2465.73	176.574
2463.6	158.84
2461.48	162.292
2459.35	162.214
2457.22	179.76
2455.09	179.673
2452.96	200.715
2450.83	147.824
2448.7	182.932
2446.57	196.909
2444.43	214.387
2442.3	172.13
2440.16	189.603
2438.03	231.625
2435.89	210.467
2433.75	199.848
2431.61	185.734
2429.47	171.633
2427.33	199.559
2425.19	199.463
2423.04	178.381
2420.9	206.263
2418.75	178.209
2416.6	192.094
2414.46	171.056
2412.31	188.419
2410.16	198.791
2408.01	170.808
2405.85	160.273
2403.7	174.126
2401.55	187.965
2399.39	212.229
2397.23	180.829
2395.08	152.935
2392.92	173.706
2390.76	222.237
2388.6	194.363
2386.44	197.738
2384.27	180.306
2382.11	180.218
2379.95	169.739
2377.78	225.055
2375.61	221.486
2373.44	186.788
2371.28	224.729
2369.11	221.165
2366.93	207.242
2364.76	203.689
2362.59	172.534
2360.42	217.288
2358.24	189.604
2356.06	227.414
2353.89	206.64
2351.71	216.867
2349.53	206.44
2347.35	202.901
2345.17	202.803
2342.98	202.704
2340.8	212.908
2338.62	223.102
2336.43	233.286
2334.24	202.312
2332.05	243.342
2329.87	222.669
2327.68	249.953
2325.48	219.031
2323.29	229.187
2321.1	239.332
2318.9	208.46
2316.71	225.437
2314.51	266.296
2312.32	228.631
2310.12	187.591
2307.92	242.045
2305.72	180.593
2303.51	234.998
2301.31	248.5
2299.11	241.574
2296.9	231.254
2294.7	231.142
2292.49	210.644
2290.28	213.938
2288.07	230.804
2285.86	213.729
2283.65	267.879
2281.44	250.803
2279.22	233.743
2277.01	233.629
2274.79	233.515
2272.58	216.488
2270.36	256.954
2268.14	250.07
2265.92	212.794
2263.7	249.826
2261.48	209.212
2259.25	222.601
2257.03	239.348
2254.8	252.709
2252.58	249.217
2250.35	252.462
2248.12	235.516
2245.89	232.038
2243.66	275.621
2241.43	245.25
2239.19	241.772
2236.96	271.86
2234.72	221.408
2232.49	234.711
2230.25	274.813
2228.01	237.832
2225.77	254.456
2223.53	247.638
2221.29	250.862
2219.05	207.278
2216.8	260.641
2214.56	257.174
2212.31	297.107
2210.06	260.258
2207.81	246.791
2205.57	256.67
2203.31	243.217
2201.06	266.409
2198.81	272.935
2196.56	299.416
2194.3	262.692
2192.04	252.592
2189.79	275.722
2187.53	305.47
2185.27	295.364
2183.01	232.194
2180.75	255.288
2178.48	278.36
2176.22	281.535
2173.95	254.912
2171.69	268.023
2169.42	264.584
2167.15	277.677
2164.88	257.716
2162.61	257.589
2160.34	300.373
2158.07	313.422
2155.79	296.78
2153.52	286.746
2151.24	322.842
2148.96	266.708
2146.69	312.651
2144.41	289.471
2142.13	292.616
2139.84	246.465
2137.56	275.905
2135.28	285.618
2132.99	298.603
2130.71	295.176
2128.42	298.309
2126.13	307.991
2123.84	275.09
2121.55	291.321
2119.26	307.535
2116.96	294.304
2114.67	268.011
2112.37	316.881
2110.08	329.785
2107.78	296.986
2105.48	313.15
2103.18	322.776
2100.88	306.323
2098.58	276.857
2096.27	341.831
2093.97	331.9
2091.66	328.484
2089.36	331.572
2087.05	318.412
2084.74	298.769
2082.43	334.326
2080.12	301.718
2077.81	346.966
2075.49	337.071
2073.18	343.383
2070.86	346.451
2068.54	359.224
2066.23	352.577
2063.91	368.568
2061.59	355.459
2059.26	352.053
2056.94	345.422
2054.62	374.291
2052.29	387.005
2049.97	335.238
2047.64	351.181
2045.31	357.447
2042.98	341.177
2040.65	363.527
2038.32	382.639
2035.98	385.663
2033.65	391.896
2031.31	414.176
2028.98	433.224
2026.64	423.386
2024.3	455.235
2021.96	448.6
2019.62	416.35
2017.28	460.958
2014.93	390.34
2012.59	470.093
2010.24	514.608
2007.89	491.989
2005.55	504.517
2003.2	450.009
2000.84	452.975
1998.49	529.27
1996.14	490.765
1993.79	503.261
1991.43	528.48
1989.07	490.032
1986.72	527.953
1984.36	527.69
1982	552.845
1979.64	603.38
1977.27	558.641
1974.91	615.468
1972.54	577.11
1970.18	614.854
1967.81	567.03
1965.44	598.409
1963.07	648.744
1960.7	613.626
1958.33	641.773
1955.96	644.612
1953.58	675.873
1951.21	694.475
1948.83	690.973
1946.45	703.241
1944.07	712.346
1941.69	693.087
1939.31	667.549
1936.93	764.78
1934.55	742.377
1932.16	707.421
1929.77	763.632
1927.39	819.786
1925	744.031
1922.61	828.379
1920.22	909.505
1917.83	767.99
1915.43	830.267
1913.04	776.615
1910.64	813.785
1908.24	810.248
1905.85	847.363
1903.45	912.568
1901.05	887.121
1898.64	999.071
1896.24	945.52
1893.84	957.521
1891.43	894.693
1889.03	903.591
1886.62	875.108
1884.21	1036.53
1881.8	1039.12
1879.39	998.172
1876.97	1013.21
1874.56	956.785
1872.14	1074.29
1869.73	1104.78
1867.31	1026.68
1864.89	1057.17
1862.47	1059.73
1860.05	1149.02
1857.63	1129.86
1855.2	1113.83
1852.78	1082.34
1850.35	1128.16
1847.93	1065.8
1845.5	1170.25
1843.07	1231.38
1840.64	1196.83
1838.2	1211.64
1835.77	1195.62
1833.34	1164.22
1830.9	1209.81
1828.46	1249.2
1826.02	1230.12
1823.59	1201.83
1821.14	1360.98
1818.7	1314.23
1816.26	1292.08
1813.81	1337.44
1811.37	1355.16
1808.92	1348.35
1806.47	1390.55
1804.02	1316.37
1801.57	1337.13
1799.12	1342.57
1796.67	1387.74
1794.21	1435.92
1791.76	1316.1
1789.3	1406.99
1786.84	1375.78
1784.38	1490.94
1781.92	1490.19
1779.46	1455.93
1777	1449.1
1774.53	1424.02
1772.07	1496.29
1769.6	1510.73
1767.13	1509.96
1764.66	1424.17
1762.19	1541.82
1759.72	1541.04
1757.25	1588.77
1754.77	1612.2
1752.3	1626.53
1749.82	1659.01
1747.34	1549.23
1744.86	1639.17
1742.38	1620.21
1739.9	1749.29
1737.42	1748.41
1734.93	1681.12
1732.45	1767.74
1729.96	1754.79
1727.47	1778
1724.98	1710.83
1722.49	1791.24
1720	1832.46
1717.5	1765.36
1715.01	1878.69
1712.51	1898.76
1710.02	1969.86
1707.52	1899.83
1705.02	1964.86
1702.52	1966.85
1700.01	2022.79
1697.51	2042.72
1695.01	2104.55
1692.5	2088.51
1689.99	2201.09
1687.48	2086.38
1684.97	2246.65
1682.46	2347.03
1679.95	2318.97
1677.44	2281.99
1674.92	2337.47
1672.41	2360.11
1669.89	2436.35
1667.37	2420.22
1664.85	2427.91
1662.33	2468.3
1659.8	2389.76
1657.28	2400.42
1654.75	2497.18
1652.23	2481.06
1649.7	2381.9
1647.17	2383.65
1644.64	2415.02
1642.11	2431.56
1639.57	2510.24
1637.04	2322.56
1634.5	2368.68
1631.97	2361.56
1629.43	2271.72
1626.89	2320.75
1624.35	2233.98
1621.81	2318.37
1619.26	2393.83
1616.72	2233.49
1614.17	2214.67
1611.62	2322.45
1609.07	2268.3
1606.52	2287.72
1603.97	2348.26
1601.42	2376.43
1598.87	2231.35
1596.31	2382.79
1593.75	2305.31
1591.2	2433.11
1588.64	2338.1
1586.08	2240.26
1583.51	2288.87
1580.95	2357.9
1578.39	2450.25
1575.82	2451.91
1573.25	2319.21
1570.68	2417.27
1568.11	2404.36
1565.54	2356.46
1562.97	2407.71
1560.4	2505.53
1557.82	2515.88
1555.25	2529.14
1552.67	2530.74
1550.09	2442.22
1547.51	2516.51
1544.93	2497.78
1542.34	2496.5
1539.76	2544.53
1537.17	2482.32
1534.59	2391.19
1532	2575.35
1529.41	2600.08
1526.82	2613.21
1524.22	2562.69
1521.63	2645.2
1519.03	2730.52
1516.44	2708.89
1513.84	2626.67
1511.24	2541.65
1508.64	2678.74
1506.04	2688.88
1503.43	2690.37
1500.83	2706.25
1498.22	2730.74
1495.62	2714.95
1493.01	2802.65
1490.4	2898.89
1487.79	2914.61
1485.17	2887.27
1482.56	3089.44
1479.94	3050.57
1477.33	3157.88
1474.71	3256.49
1472.09	3472.35
1469.47	3573.55
1466.85	3714.68
1464.22	4095.75
1461.6	4010.78
1458.97	4265.66
1456.34	4446.08
1453.71	4463.74
1451.08	4501.33
1448.45	4473.35
1445.82	4567.85
1443.18	4679.32
1440.55	4816.29
1437.91	4808.09
1435.27	4674.87
1432.63	4186.73
1429.99	3929.05
1427.35	3830.53
1424.7	3732.11
1422.06	3662.14
1419.41	3657.4
1416.76	3564.89
1414.11	3543.22
1411.46	3643.2
1408.81	3550.84
1406.16	3571.59
1403.5	3476.53
1400.85	3604.56
1398.19	3424.94
1395.53	3524.67
1392.87	3551.01
1390.2	3715.35
1387.54	3673.99
1384.88	3711.47
1382.21	3962.64
1379.54	3921.22
1376.87	4082.12
1374.2	4141.76
1371.53	4136.79
1368.86	4129.01
1366.18	4194.14
1363.51	4264.8
1360.83	4139.34
1358.15	4064.4
1355.47	4190.96
1352.79	4132.84
1350.11	4041.25
1347.42	4095
1344.73	4229.65
1342.05	4157.68
1339.36	4080.2
1336.67	4164.47
1333.98	4301.59
1331.28	4009.74
1328.59	4316.56
1325.89	4166.87
1323.2	4256.42
1320.5	4223.62
1317.8	4271.4
1315.1	4399.62
1312.39	4366.79
1309.69	4325.68
1306.98	4437.03
1304.28	4589.82
1301.57	4673.23
1298.86	4856.16
1296.15	4806.59
1293.43	4663.1
1290.72	4641.3
1288	4647.15
1285.29	4617.1
1282.57	4460.21
1279.85	4160.12
1277.13	3989.85
1274.4	3552.62
1271.68	3336.05
1268.95	3166.48
1266.23	2958.59
1263.5	2910.31
1260.77	2862.08
1258.04	2668.4
1255.3	2664.25
1252.57	2736.89
1249.83	2658.7
1247.1	2621.68
1244.36	2538.16
1241.62	2495.77
1238.88	2349.49
1236.13	2435.73
1233.39	2308.75
1230.64	2362.15
1227.89	2295.4
1225.15	2264.18
1222.4	2262.98
1219.64	2242.71
1216.89	2227.9
1214.14	2243.06
1211.38	2214.66
1208.62	2121.04
1205.86	2141.66
1203.1	2200.28
1200.34	2120.38
1197.58	2018.86
1194.81	1928.29
1192.05	1870.35
1189.28	1928.96
1186.51	2011.87
1183.74	2064.93
1180.97	1952.94
1178.19	2046.52
1175.42	2002.21
1172.64	2044.35
1169.86	2110.75
1167.08	2136.6
1164.3	2103.11
1161.52	2209.79
1158.73	2216.7
1155.95	2285.51
1153.16	2217.03
1150.37	2137.87
1147.58	2201.24
1144.79	2288.71
1142	2231.11
1139.2	2278.23
1136.41	2231.42
1133.61	2396.43
1130.81	2555.9
1128.01	2594.7
1125.21	2574.59
1122.41	2581.24
1119.6	2587.89
1116.8	2492.99
1113.99	2523.7
1111.18	2332.85
1108.37	2275.58
1105.55	2290.37
1102.74	2430.38
1099.93	2453.06
1097.11	2355.91
1094.29	2580.81
1091.47	2358.72
1088.65	2490.35
1085.83	2457.14
1083	2670.88
1080.18	2685.37
1077.35	2551.33
1074.52	2592.38
1071.69	2625.43
1068.86	2584.31
1066.02	2638.5
1063.19	2827.53
1060.35	2659.47
1057.51	2565.57
1054.67	2532.51
1051.83	2673.68
1048.99	2809.42
1046.15	2778.91
1043.3	2840.66
1040.45	2607.37
1037.6	2527.01
1034.75	2365.17
1031.9	2282.38
1029.05	2310.07
1026.19	2206.39
1023.34	2126.45
1020.48	2141.05
1017.62	2079.58
1014.76	2060.12
1011.9	2142.84
1009.03	2272.6
1006.17	2237.36
1003.3	2351.23
1000.43	2373.5
997.562	2233.75
994.69	2070.66
991.817	2030.4
988.942	2005.83
986.066	1973.47
983.188	2092.26
980.308	2192.7
977.427	2319.05
974.545	2791.24
971.66	3728.32
968.775	5103.54
965.887	7160.32
962.999	8812.54
960.108	8836.33
957.216	7185.04
954.323	5431.88
951.428	3991.41
948.531	3292.89
945.633	2696.02
942.733	2389.42
939.832	2119.34
936.929	2048.45
934.024	1856.29
931.118	1870.77
928.211	1831.07
925.302	1855.86
922.391	1872.89
919.478	1879.6
916.565	1873.43
913.649	1921.29
910.732	1915.11
907.813	1932.05
904.893	1941.28
901.971	1994.12
899.048	1957.13
896.123	2048.36
893.196	2037
890.268	2099.92
887.339	2073.19
884.407	1936.48
881.474	2007.02
878.54	2064.71
875.604	2216.82
872.666	2315.17
869.727	2341.97
866.786	2315.2
863.843	2454.11
860.899	2508.81
857.953	2642.36
855.006	2694.36
852.057	2667.46
849.107	2777.84
846.155	2750.93
843.201	2625.03
840.246	2496.74
837.289	2353.37
834.33	2073.28
831.37	2008.82
828.408	1995.07
825.445	1869.99
822.48	1712.17
819.513	1642.99
816.545	1447.57
813.575	1446.78
810.604	1334.96
807.631	1235.86
804.656	1159.56
801.68	1224.44
798.702	1178.44
795.722	1079.65
792.741	1091.64
789.758	1103.61
786.773	1077.88
783.787	1152.63
780.8	1101.8
777.81	1143.84
774.819	1133.19
771.827	1130.06
768.832	1124.44
765.836	1153.86
762.839	1165.73
759.84	1130.09
756.839	1194.44
753.836	1126.36
750.832	1095.79
747.826	1155.06
744.819	1179.36
741.81	1111.43
738.799	1110.82
735.787	1157.51
732.773	1179.26
729.757	1218.4
726.74	1180.46
723.721	1159.94
720.7	1124.55
717.678	1158.66
714.654	1195.22
711.628	1221.83
708.601	1238.5
705.572	1267.52
702.541	1269.3
699.509	1258.71
696.475	1191.29
693.439	1242.51
690.402	1246.76
687.363	1159.71
684.322	1233.06
681.28	1217.59
678.236	1258.8
675.19	1174.39
672.143	1205.74
669.094	1180.48
666.043	1194.58
662.991	1132.5
659.936	1180.98
656.881	1222.05
653.823	1204.21
650.764	1223.15
647.703	1256.77
644.641	1395.64
641.576	1338.59
638.511	1374.54
635.443	1400.67
632.374	1429.21
629.303	1479.7
626.23	1613.1
623.155	1682.94
620.079	1662.51
617.002	1778.53
613.922	1736.15
610.841	1905.55
607.758	1928.82
604.673	1842.66
601.587	1814.92
598.499	1894.05
595.409	2036.18
592.318	2304.29
589.224	2300.59
586.129	2238.75
583.033	2239.93
579.935	2187.86
576.834	2174.55
573.733	1948.52
570.629	1891.86
567.524	1866.66
564.417	1853.56
561.308	1787.4
558.198	1834.62
555.086	1734.82
551.972	1753.12
548.856	1713.63
545.739	1698.25
542.62	1654.03
539.499	1578.62
536.376	1594.56
533.252	1555.27
530.126	1518.42
526.998	1534.36
523.869	1452.03
520.738	1444.04
517.605	1546.15
514.47	1487.88
511.333	1463.14
508.195	1459.94
505.055	1478.23
501.913	1458.31
498.77	1416.94
495.625	1563.97
492.478	1436.81
489.329	1555.08
486.178	1568.49
483.026	1541.45
479.872	1597.64
476.716	1630.02
473.558	1664.73
470.399	1735
467.238	1831.29
464.075	1797.07
460.91	1919.28
457.744	2128.97
454.576	2305.29
451.406	2292.17
448.234	2364.18
445.061	2584.96
441.885	2609.49
438.708	2657.59
435.529	2750.46
432.349	2963.45
429.166	3034.83
425.982	2858.87
422.796	2633.67
419.608	2516.93
416.419	2405.03
413.227	2330.84
410.034	2287.26
406.839	2180.36
403.642	2097.03
400.444	2177.91
397.243	2139.2
394.041	2170.78
390.837	2099.34
387.631	2044.36
384.424	2059.58
381.214	2014.03
378.003	1942.84
374.79	1976.75
371.575	1942.98
368.359	1916.25
365.14	1919.83
361.92	1904.77
358.698	2015.41
355.474	1928.21
352.248	1966.64
349.021	1986.44
345.791	1980.68
342.56	1995.8
339.327	2096.73
336.092	2026
332.856	2064.25
329.617	2114.02
326.377	2189.19
323.135	2100.07
319.891	2276.87
316.645	2215.51
313.397	2311.24
310.148	2275.31
306.897	2327.07
303.643	2470.97
300.388	2379.73
297.132	2447.45
293.873	2620.95
290.612	2529.77
287.35	2592.7
284.086	2660.14
280.82	2601.24
277.552	2737.44
274.282	2774.87
271.01	2759.55
267.737	2854.19
264.461	2882.33
261.184	2951.62
257.905	3016.26
254.624	3217.96
251.341	3232.12
248.057	3287.36
244.77	3468.02
241.482	3568.66
238.191	3623.6
234.899	3849.31
231.605	3958.67
228.309	4108.84
225.011	4158.8
221.712	4226.88
218.41	4378.92
215.107	4460.41
211.801	4380.74
208.494	4543.76
205.185	4645.41
201.874	4753.73
198.561	4789.5
195.246	4847.85
191.93	4768.21
188.611	4661.55
185.291	4891.49
181.968	4809.7
178.644	4964.86
175.318	4962.02
171.99	5110.15
168.66	5372.95
165.328	5414.89
161.994	5627.73
158.659	5862.8
155.321	6167.24
151.982	6424.18
148.64	6622.48
145.297	7183.89
141.952	7388.24
138.605	8112.11
135.256	8230.61
131.905	8630.92
128.552	9113.52
125.197	9532.98
121.84	10179.8
118.482	10616
115.121	11390.9
111.758	11799.1
108.394	12001.9
105.028	11533.9
101.659	10886.1
100.536	10614.7