File: Spicy-Raman/use cases and example/Put_Raman_txt_Files_Here/polyethylene_1.txt
3201.26	21.0564
3199.48	12.63
3197.7	50.4973
3195.92	42.062
3194.13	92.4944
3192.35	21.0119
3190.56	0
3188.78	46.1843
3186.99	12.59
3185.2	20.9738
3183.42	54.5073
3181.63	29.3368
3179.84	29.3234
3178.05	25.123
3176.25	33.4821
3174.46	62.7504
3172.67	50.1776
3170.87	45.9752
3169.08	41.7767
3167.28	41.7577
3165.49	54.2603
3163.69	20.8599
3161.89	37.5307
3160.09	33.3455
3158.29	20.8315
3156.49	16.6576
3154.69	54.1126
3152.89	41.6061
3151.08	49.9046
3149.28	45.7251
3147.48	-4.15494
3145.67	29.0713
3143.86	24.9069
3142.06	74.6868
3140.25	58.0633
3138.44	16.582
3136.63	33.1488
3134.82	53.8423
3133.01	33.1187
3131.19	37.2415
3129.38	57.9049
3127.57	45.476
3125.75	16.5292
3123.94	74.3474
3122.12	28.8997
3120.3	12.3799
3118.49	16.4991
3116.67	45.3517
3114.85	61.8151
3113.03	24.7147
3111.21	45.2897
3109.38	32.9229
3107.56	16.454
3105.74	20.5581
3103.91	53.4266
3102.09	20.5393
3100.26	32.8479
3098.43	16.4164
3096.61	16.4089
3094.78	28.7025
3092.95	53.2803
3091.12	53.256
3089.28	45.0422
3087.45	40.9287
3085.62	24.546
3083.79	40.8913
3081.95	36.7853
3080.12	57.1955
3078.28	49.0023
3076.44	57.1432
3074.6	40.7979
3072.77	48.9351
3070.93	24.4563
3069.08	61.1128
3067.24	40.7232
3065.4	32.5637
3063.56	20.343
3061.71	77.2679
3059.87	20.3244
3058.02	56.8821
3056.18	36.5503
3054.33	20.2964
3052.48	40.5743
3050.63	73.0002
3048.78	-8.10741
3046.93	24.3111
3045.08	28.3499
3043.23	16.1925
3041.37	24.2777
3039.52	44.4886
3037.67	28.298
3035.81	28.285
3033.95	44.4274
3032.1	48.444
3030.24	60.5272
3028.38	32.2664
3026.52	28.2201
3024.66	60.4439
3022.8	60.4161
3020.93	20.1294
3019.07	68.4087
3017.2	52.2885
3015.34	64.3255
3013.47	60.2774
3011.61	32.1332
3009.74	32.1184
3007.87	56.1813
3006	28.0777
3004.13	76.176
3002.26	60.1113
3000.39	36.0502
2998.51	68.0634
2996.64	28.0132
2994.77	68.0008
2992.89	31.9856
2991.01	59.9454
2989.14	43.9397
2987.26	59.8902
2985.38	59.8626
2983.5	79.78
2981.62	55.8203
2979.74	47.8239
2977.85	63.7358
2975.97	63.7064
2974.09	103.475
2972.2	111.383
2970.32	79.5229
2968.43	115.255
2966.54	115.202
2964.65	91.3248
2962.76	91.2827
2960.87	122.976
2958.98	111.024
2957.09	122.863
2955.2	126.768
2953.3	142.548
2951.41	122.693
2949.51	154.284
2947.62	162.121
2945.72	205.522
2943.82	205.427
2941.92	205.332
2940.02	201.29
2938.12	260.373
2936.22	272.082
2934.32	228.601
2932.41	260.012
2930.51	263.829
2928.6	255.835
2926.7	318.662
2924.79	298.853
2922.88	310.506
2920.97	247.504
2919.06	278.804
2917.15	219.8
2915.24	278.546
2913.33	258.81
2911.42	290.047
2909.5	262.488
2907.59	317.189
2905.67	317.042
2903.75	305.158
2901.84	344.121
2899.92	332.236
2898	339.895
2896.08	285.067
2894.16	335.677
2892.24	358.929
2890.31	421.156
2888.39	409.268
2886.46	510.373
2884.54	576.337
2882.61	533.253
2880.68	455.194
2878.76	431.65
2876.83	423.676
2874.9	392.398
2872.97	353.382
2871.03	357.1
2869.1	360.813
2867.17	372.279
2865.23	372.106
2863.3	418.425
2861.36	336.907
2859.42	352.233
2857.48	398.496
2855.55	409.912
2853.61	475.431
2851.66	463.619
2849.72	417.063
2847.78	378.27
2845.84	443.681
2843.89	420.337
2841.95	319.924
2840	235.015
2838.05	180.993
2836.1	130.87
2834.16	119.267
2832.21	92.2927
2830.25	99.9371
2828.3	80.6808
2826.35	88.3235
2824.4	72.9288
2822.44	69.0582
2820.49	53.6869
2818.53	57.4948
2816.57	80.4551
2814.61	38.2941
2812.66	68.8971
2810.7	84.1683
2808.73	72.6568
2806.77	95.5564
2804.81	64.948
2802.85	64.9176
2800.88	87.7887
2798.92	41.9663
2796.95	41.9466
2794.98	64.7963
2793.01	87.6246
2791.04	79.9676
2789.07	64.7054
2787.1	49.4575
2785.13	45.6317
2783.16	91.2206
2781.18	102.575
2779.21	53.1622
2777.23	41.7507
2775.26	72.0811
2773.28	64.4634
2771.3	72.0136
2769.32	49.2494
2767.34	64.3728
2765.36	56.7729
2763.38	90.7941
2761.39	26.4692
2759.41	52.9136
2757.43	75.5553
2755.44	49.0879
2753.45	79.2587
2751.46	64.1317
2749.48	94.267
2747.49	71.6093
2745.5	67.8085
2743.5	60.246
2741.51	82.7993
2739.52	48.9039
2737.52	75.2014
2735.53	97.7158
2733.53	105.183
2731.54	93.8692
2729.54	131.355
2727.54	108.786
2725.54	108.735
2723.54	86.1974
2721.54	78.6649
2719.53	131.047
2717.53	97.303
2715.52	97.2572
2713.52	82.2558
2711.51	85.9543
2709.5	104.591
2707.5	115.742
2705.49	70.9054
2703.48	93.2527
2701.47	78.2953
2699.45	40.9925
2697.44	74.4967
2695.43	93.077
2693.41	78.1478
2691.39	63.2327
2689.38	104.099
2687.36	107.766
2685.34	85.4291
2683.32	118.802
2681.3	59.3729
2679.28	55.6358
2677.26	66.7314
2675.23	62.9944
2673.21	85.1874
2671.18	77.7431
2669.16	77.7064
2667.13	51.7798
2665.1	88.7234
2663.07	88.6814
2661.04	92.3328
2659.01	81.2145
2656.98	66.4168
2654.94	59.0092
2652.91	62.6676
2650.87	73.6918
2648.84	40.5113
2646.8	58.8976
2644.76	44.1523
2642.72	58.8419
2640.68	55.1382
2638.64	51.4379
2636.6	62.4307
2634.56	55.0599
2632.51	40.3581
2630.47	69.6764
2628.42	73.3088
2626.38	76.9378
2624.33	51.2675
2622.28	69.5444
2620.23	80.4869
2618.18	73.1352
2616.13	105.996
2614.07	65.7592
2612.02	76.6827
2609.97	54.7474
2607.91	80.258
2605.85	51.049
2603.8	65.6033
2601.74	72.858
2599.68	61.8999
2597.62	83.7071
2595.56	98.2181
2593.49	58.1757
2591.43	69.0508
2589.37	83.5481
2587.3	54.462
2585.24	58.0651
2583.17	50.7828
2581.1	76.138
2579.03	101.469
2576.96	72.4434
2574.89	90.5111
2572.82	97.7055
2570.74	101.276
2568.67	46.9986
2566.59	68.6576
2564.52	43.342
2562.44	46.9315
2560.36	79.3847
2558.28	64.9201
2556.2	75.7041
2554.12	75.668
2552.04	54.0228
2549.96	100.794
2547.87	75.5598
2545.79	71.9274
2543.7	75.4877
2541.61	107.788
2539.53	32.321
2537.44	75.3797
2535.35	75.3437
2533.26	32.2747
2531.16	68.103
2529.07	96.7317
2526.98	64.457
2524.88	60.847
2522.79	28.6202
2520.69	71.5163
2518.59	60.7598
2516.49	67.8755
2514.39	71.4137
2512.29	71.3796
2510.19	49.9418
2508.09	57.049
2505.98	64.1495
2503.88	56.9945
2501.77	71.209
2499.66	71.1749
2497.55	81.8119
2495.45	78.2174
2493.33	67.519
2491.22	49.727
2489.11	74.5548
2487	74.5191
2484.88	53.2024
2482.77	60.2671
2480.65	81.4988
2478.54	46.0424
2476.42	88.5007
2474.3	53.0749
2472.18	81.3425
2470.06	67.1638
2467.93	81.2645
2465.81	56.5047
2463.69	60.0074
2461.56	70.563
2459.43	59.9498
2457.31	81.0695
2455.18	66.9383
2453.05	77.4703
2450.92	66.874
2448.79	80.9138
2446.65	66.8097
2444.52	87.8652
2442.39	52.6938
2440.25	94.8032
2438.11	84.229
2435.98	94.712
2433.84	49.0863
2431.7	101.63
2429.56	73.5586
2427.41	98.0309
2425.27	80.4866
2423.13	87.4433
2420.98	83.9051
2418.84	41.9323
2416.69	80.3316
2414.54	80.2928
2412.39	69.7862
2410.24	83.7031
2408.09	87.1487
2405.94	83.6224
2403.79	83.582
2401.63	66.1372
2399.48	55.6676
2397.32	111.281
2395.16	93.8484
2393	76.4321
2390.84	69.4502
2388.68	65.9458
2386.52	104.075
2384.36	93.622
2382.2	76.2477
2380.03	72.7467
2377.87	79.6365
2375.7	65.7548
2373.53	89.9368
2371.36	100.266
2369.19	58.7479
2367.02	86.3522
2364.85	82.858
2362.68	89.7194
2360.5	106.921
2358.33	117.212
2356.15	110.264
2353.97	82.6577
2351.8	103.272
2349.62	79.1369
2347.44	79.0985
2345.25	99.6846
2343.07	99.6363
2340.89	65.2473
2338.7	68.648
2336.52	89.1992
2334.33	85.7268
2332.14	71.9756
2329.95	89.0694
2327.76	106.147
2325.57	88.983
2323.38	78.6775
2321.19	85.4775
2318.99	58.0965
2316.8	64.8998
2314.6	81.9389
2312.4	105.786
2310.2	78.4484
2308.01	119.32
2305.8	78.3722
2303.6	102.175
2301.4	115.742
2299.2	112.283
2296.99	57.8147
2294.79	74.7826
2292.58	64.5535
2290.37	95.0852
2288.16	105.222
2285.95	61.0667
2283.74	105.119
2281.53	84.7322
2279.31	91.4662
2277.1	98.1937
2274.88	98.1458
2272.67	67.6538
2270.45	71.0018
2268.23	108.14
2266.01	97.9545
2263.79	104.659
2261.57	80.9867
2259.34	84.32
2257.12	104.506
2254.89	90.9768
2252.67	90.9324
2250.44	84.1555
2248.21	90.8436
2245.98	107.614
2243.75	104.2
2241.52	77.2719
2239.28	67.1601
2237.05	110.76
2234.81	114.061
2232.58	100.592
2230.34	90.489
2228.1	110.544
2225.86	90.4005
2223.62	93.7028
2221.38	120.416
2219.14	86.9245
2216.89	83.5404
2214.65	116.899
2212.4	116.842
2210.15	103.438
2207.9	116.728
2205.66	133.338
2203.4	133.272
2201.15	139.867
2198.9	106.513
2196.65	113.115
2194.39	96.433
2192.13	109.68
2189.88	136.203
2187.62	126.175
2185.36	102.881
2183.1	136.002
2180.84	122.673
2178.57	102.73
2176.31	92.7427
2174.05	105.94
2171.78	112.506
2169.51	105.836
2167.24	128.924
2164.97	138.773
2162.7	95.7721
2160.43	112.229
2158.16	112.174
2155.88	128.607
2153.61	131.84
2151.33	98.8311
2149.06	105.368
2146.78	115.189
2144.5	101.975
2142.22	95.3487
2139.94	134.737
2137.65	114.963
2135.37	108.34
2133.08	144.382
2130.8	137.751
2128.51	104.902
2126.22	121.233
2123.93	117.898
2121.64	111.293
2119.35	101.423
2117.05	127.534
2114.76	134.008
2112.47	107.807
2110.17	137.141
2107.87	110.964
2105.57	97.8611
2103.27	117.375
2100.97	110.8
2098.67	123.774
2096.37	139.991
2094.06	113.889
2091.76	130.095
2089.45	139.783
2087.14	133.216
2084.83	139.645
2082.52	129.838
2080.21	110.308
2077.9	123.224
2075.58	93.9927
2073.27	116.623
2070.95	116.565
2068.64	122.98
2066.32	119.684
2064	135.791
2061.68	142.186
2059.36	116.277
2057.03	129.132
2054.71	116.161
2052.38	151.58
2050.06	145.058
2047.73	125.654
2045.4	132.033
2043.07	148.061
2040.74	135.119
2038.41	154.345
2036.08	128.557
2033.74	141.342
2031.41	131.64
2029.07	128.365
2026.73	141.131
2024.39	125.032
2022.05	150.604
2019.71	150.529
2017.37	198.472
2015.03	188.774
2012.68	153.503
2010.33	147.034
2007.99	134.181
2005.64	166.047
2003.29	156.389
2000.94	178.641
1998.59	146.668
1996.23	172.09
1993.88	162.448
1991.52	165.551
1989.17	162.286
1986.81	181.288
1984.45	165.304
1982.09	155.689
1979.73	190.545
1977.37	165.056
1975	145.938
1972.64	190.26
1970.27	180.656
1967.91	148.888
1965.54	189.975
1963.17	193.045
1960.8	183.459
1958.43	189.69
1956.05	183.276
1953.68	173.709
1951.3	164.152
1948.93	195.622
1946.55	217.599
1944.17	204.882
1941.79	170.125
1939.41	182.635
1937.02	169.954
1934.64	179.306
1932.26	235.811
1929.87	188.555
1927.48	248.139
1925.09	222.9
1922.7	210.236
1920.31	169.359
1917.92	228.834
1915.53	250.651
1913.13	216.078
1910.74	181.54
1908.34	209.605
1905.94	187.612
1903.54	231.272
1901.14	259.269
1898.74	227.917
1896.34	234.044
1893.93	271.355
1891.53	236.927
1889.12	205.649
1886.71	255.375
1884.3	252.134
1881.89	248.896
1879.48	251.88
1877.07	186.484
1874.66	279.585
1872.24	260.815
1869.82	304.131
1867.41	229.535
1864.99	266.622
1862.57	250.994
1860.15	238.48
1857.72	241.455
1855.3	253.709
1852.88	228.842
1850.45	293.636
1848.02	262.594
1845.59	314.954
1843.16	293.192
1840.73	271.451
1838.3	292.896
1835.87	268.096
1833.43	304.921
1831	292.453
1828.56	264.613
1826.12	316.761
1823.68	273.568
1821.24	307.224
1818.8	313.21
1816.36	303.845
1813.91	291.421
1811.47	334.198
1809.02	266.611
1806.57	300.168
1804.12	315.323
1801.67	330.463
1799.22	305.829
1796.77	296.504
1794.31	339.127
1791.86	332.848
1789.4	296.055
1786.94	317.259
1784.48	301.853
1782.02	319.985
1779.56	335.052
1777.1	325.749
1774.63	352.97
1772.17	319.337
1769.7	340.453
1767.23	370.663
1764.76	370.475
1762.29	403.673
1759.82	360.998
1757.35	351.719
1754.87	360.632
1752.4	381.651
1749.92	372.375
1747.44	347.979
1744.96	396.192
1742.48	356.694
1740	350.47
1737.51	368.41
1735.03	371.241
1732.54	380.103
1730.06	398
1727.57	421.907
1725.08	388.559
1722.59	388.361
1720.1	382.146
1717.6	378.944
1715.11	405.804
1712.61	405.598
1710.12	402.388
1707.62	444.202
1705.12	407.978
1702.62	449.746
1700.11	410.559
1697.61	413.345
1695.11	419.122
1692.6	424.892
1690.09	415.703
1687.58	454.35
1685.07	448.143
1682.56	427.012
1680.05	426.794
1677.54	423.593
1675.02	414.432
1672.51	530.44
1669.99	485.492
1667.47	512.036
1664.95	514.75
1662.43	508.539
1659.9	552.865
1657.38	510.99
1654.85	537.453
1652.33	552.017
1649.8	530.97
1647.27	495.121
1644.74	497.831
1642.21	515.346
1639.68	547.645
1637.14	547.365
1634.61	458.368
1632.07	472.911
1629.53	576.065
1626.99	516.717
1624.45	525.305
1621.91	516.187
1619.36	474.648
1616.82	489.138
1614.27	427.04
1611.72	518.072
1609.18	476.617
1606.63	499.897
1604.07	479.067
1601.52	470.008
1598.97	484.447
1596.41	493.001
1593.86	469.284
1591.3	471.974
1588.74	462.941
1586.18	512.488
1583.62	503.443
1581.05	465.153
1578.49	473.685
1575.92	508.511
1573.36	449.83
1570.79	522.585
1568.22	440.613
1565.65	522.047
1563.07	542.183
1560.5	498.202
1557.92	585.304
1555.35	520.972
1552.77	482.887
1550.19	514.62
1547.61	528.884
1545.03	458.904
1542.45	539.95
1539.86	472.938
1537.28	530.693
1534.69	536.216
1532.1	541.733
1529.51	541.453
1526.92	515.128
1524.33	538.002
1521.73	529.051
1519.14	531.667
1516.54	519.84
1513.94	571.528
1511.34	568.347
1508.74	524.801
1506.14	593.698
1503.54	567.466
1500.93	523.986
1498.33	607.164
1495.72	583.841
1493.11	569.166
1490.5	609.094
1487.89	620.265
1485.28	579.762
1482.66	656.914
1480.05	699.58
1477.43	679.158
1474.81	733.225
1472.19	755.746
1469.57	806.855
1466.95	986.598
1464.33	1054.68
1461.7	985.574
1459.08	1073.57
1456.45	1041.63
1453.82	1081.02
1451.19	994.931
1448.56	957.372
1445.92	1048.01
1443.29	1147.08
1440.65	1339.94
1438.02	1430.23
1435.38	1139.61
1432.74	951.548
1430.1	826.139
1427.45	873.946
1424.81	873.491
1422.16	958.072
1419.52	801.755
1416.87	823.99
1414.22	775.448
1411.57	789.187
1408.92	749.196
1406.26	720.548
1403.61	683.458
1400.95	680.279
1398.29	637.605
1395.63	673.929
1392.97	676.396
1390.31	692.944
1387.65	709.474
1384.98	700.662
1382.32	762.17
1379.65	719.607
1376.98	738.897
1374.31	724.471
1371.64	813.902
1368.96	816.282
1366.29	807.444
1363.61	756.583
1360.94	730.981
1358.26	733.397
1355.58	772.182
1352.9	768.982
1350.21	796.527
1347.53	801.697
1344.84	770.566
1342.15	725.515
1339.47	792.07
1336.78	780.505
1334.08	794.026
1331.39	782.471
1328.7	821.025
1326	837.284
1323.3	828.504
1320.61	875.308
1317.91	835.967
1315.2	827.2
1312.5	873.93
1309.8	898.427
1307.09	870.241
1304.38	916.874
1301.68	1082.51
1298.97	1278.4
1296.25	1302.62
1293.54	1036.57
1290.83	817.77
1288.11	867.043
1285.39	797.591
1282.68	714.42
1279.96	766.425
1277.23	702.646
1274.51	666.473
1271.79	644.102
1269.06	610.749
1266.33	673.669
1263.61	632.091
1260.88	642.745
1258.14	609.462
1255.41	598.165
1252.68	556.713
1249.94	567.383
1247.2	556.126
1244.47	585.951
1241.73	596.588
1238.98	577.127
1236.24	492.076
1233.5	497.28
1230.75	532.519
1228	537.696
1225.25	493.764
1222.5	488.05
1219.75	523.218
1217	460.297
1214.25	476.387
1211.49	484.297
1208.73	511.234
1205.97	467.477
1203.21	450.931
1200.45	472.412
1197.69	512.866
1194.92	461.063
1192.16	468.951
1189.39	536.434
1186.62	471.162
1183.85	500.682
1181.08	495.007
1178.3	483.93
1175.53	510.694
1172.75	526.627
1169.97	502.055
1167.19	488.299
1164.41	466.469
1161.63	471.611
1158.84	482.134
1156.06	495.338
1153.27	473.55
1150.48	529.771
1147.69	507.988
1144.9	529.208
1142.11	502.078
1139.32	488.393
1136.52	523
1133.72	705.004
1130.92	908.247
1128.12	816.719
1125.32	679.791
1122.52	617.906
1119.71	649.658
1116.91	582.51
1114.1	571.517
1111.29	557.866
1108.48	568.24
1105.67	637.263
1102.85	634.258
1100.04	609.947
1097.22	572.352
1094.4	516.172
1091.58	515.897
1088.76	528.91
1085.94	491.438
1083.11	517.725
1080.29	541.331
1077.46	548.998
1074.63	580.513
1071.8	572.255
1068.97	667.274
1066.14	823.06
1063.3	941.648
1060.46	740.226
1057.63	620.928
1054.79	528.166
1051.95	493.571
1049.1	474.841
1046.26	458.767
1043.41	405.817
1040.57	455.641
1037.72	476.456
1034.87	463.046
1032.02	452.279
1029.16	454.665
1026.31	407.14
1023.45	462.053
1020.59	438.189
1017.73	416.974
1014.87	419.371
1012.01	369.373
1009.15	434.63
1006.28	416.079
1003.41	405.393
1000.55	402.561
997.676	428.471
994.804	378.628
991.931	396.693
989.056	406.913
986.18	383.231
983.302	380.419
980.422	395.839
977.541	390.42
974.659	377.203
971.775	364
968.889	418.374
966.002	366.205
963.113	394.561
960.223	425.481
957.331	466.739
954.437	463.896
951.542	422.202
948.646	401.264
945.748	367.411
942.848	457.723
939.947	320.491
937.044	387.482
934.139	400.182
931.233	425.77
928.326	446.172
925.417	394.378
922.506	430.232
919.594	468.622
916.68	506.97
913.765	486.119
910.848	542.411
907.929	516.424
905.009	528.984
902.087	538.963
899.164	530.976
896.239	566.58
893.312	617.52
890.384	537.796
887.454	486.313
884.523	483.492
881.59	455.105
878.656	465.079
875.72	467.381
872.782	459.469
869.843	469.425
866.902	494.668
863.96	491.851
861.016	445.737
858.07	465.86
855.123	457.974
852.174	521.298
849.224	439.685
846.272	454.687
843.318	459.517
840.363	436.431
837.406	481.841
834.447	441.025
831.487	453.451
828.525	417.758
825.562	445.366
822.597	450.181
819.631	389.27
816.662	432.006
813.693	378.746
810.721	413.87
807.748	390.944
804.774	398.293
801.797	367.842
798.819	375.196
795.84	390.091
792.859	352.148
789.876	387.152
786.892	381.915
783.906	399.285
780.918	416.635
777.929	393.831
774.938	406.152
771.945	355.815
768.951	405.707
765.955	392.97
762.957	390.254
759.958	400.041
756.957	402.321
753.955	392.111
750.951	364.438
747.945	396.671
744.938	438.841
741.929	423.649
738.918	363.64
735.906	385.844
732.892	380.657
729.876	412.774
726.859	402.606
723.84	432.192
720.819	409.612
717.797	446.604
714.773	391.804
711.748	451.07
708.72	448.345
705.691	438.196
702.661	418.161
699.629	432.768
696.595	430.059
693.559	407.59
690.522	454.275
687.483	436.752
684.442	404.451
681.4	411.623
678.356	401.543
675.311	440.715
672.263	420.786
669.214	427.933
666.164	454.735
663.111	454.484
660.057	422.314
657.001	441.713
653.944	439.017
650.885	433.872
647.824	438.533
644.762	482.364
641.698	408.682
638.632	442.698
635.564	452.232
632.495	432.437
629.424	437.081
626.351	417.316
623.277	451.232
620.201	453.421
617.123	450.733
614.044	448.049
610.963	489.174
607.88	476.741
604.795	488.632
601.709	454.347
598.621	444.382
595.531	419.866
592.44	480.274
589.347	470.31
586.252	450.666
583.155	489.162
580.057	457.427
576.957	469.268
573.855	495.601
570.752	517.071
567.647	468.487
564.54	509.257
561.431	504.149
558.321	489.404
555.209	501.18
552.095	445.513
548.979	510.25
545.862	459.451
542.743	495.258
539.622	531.025
536.5	523.525
533.376	535.234
530.25	513.347
527.122	491.484
523.992	488.814
520.861	495.726
517.728	519.384
514.594	526.271
511.457	569.012
508.319	592.59
505.179	520.615
502.037	541.806
498.894	500.95
495.749	531.665
492.602	543.282
489.453	569.175
486.303	537.915
483.15	554.266
479.996	475.499
476.841	503.748
473.683	565.212
470.524	553.028
467.363	524.253
464.2	547.668
461.035	566.318
457.869	558.896
454.701	594.086
451.531	591.388
448.359	546.137
445.186	526.928
442.011	576.225
438.834	564.101
435.655	592.092
432.474	598.833
429.292	596.141
426.108	605.226
422.922	553.107
419.734	635.128
416.544	639.473
413.353	648.513
410.16	610.575
406.965	600.843
403.768	654.458
400.57	684.567
397.37	677.153
394.167	662.722
390.964	652.987
387.758	638.585
384.55	682.644
381.341	743.009
378.13	728.58
374.917	742.173
371.702	695.104
368.486	715.693
365.267	682.671
362.047	719.544
358.825	681.902
355.601	653.605
352.376	692.756
349.148	713.276
345.919	710.551
342.688	712.471
339.455	735.263
336.22	739.484
332.984	711.265
329.745	696.97
326.505	710.461
323.263	784.073
320.019	732.774
316.773	702.326
313.526	757.345
310.276	798.454
307.025	738.037
303.772	726.094
300.517	790.188
297.26	785.136
294.001	763.981
290.741	795.746
287.479	809.086
284.214	787.952
280.948	808.169
277.681	814.595
274.411	809.546
271.139	811.379
267.866	822.372
264.59	812.748
261.313	828.303
258.034	917.019
254.753	898.214
251.471	854.303
248.186	958.833
244.9	844.206
241.611	893.894
238.321	856.921
235.029	986.265
231.735	967.492
228.439	951.016
225.141	932.283
221.842	970.386
218.54	969.834
215.237	928.422
211.932	1000.49
208.624	1011.26
205.315	963.093
202.005	960.279
198.692	959.732
195.377	1045.15
192.06	1058.12
188.742	1077.85
185.422	1061.43
182.099	1128.53
178.775	1150.45
175.449	1147.54
172.121	1221.24
168.791	1189.01
165.46	1224.34
162.126	1248.38
158.79	1324.1
155.453	1269.42
152.113	1288.91
148.772	1344.27
145.429	1247.06
142.084	1311.35
138.737	1308.36
135.388	1356.87
132.037	1474.7
128.684	1426.88
125.329	1475.24
121.973	1463.22
118.614	1544.99
115.253	1615.51
111.891	1650.27
108.527	1566.85
105.16	1532.54
101.792	1351.33
100.669	1391.14